ID,Event Time,AccX,AccY,AccZ,GyroX,GyroY,GyroZ,RotX,RotY,RotZ
1,2024-10-03T09:08:54.493Z,-0.01634850725531578,0.14127525687217712,1.0247995853424072,0.0193328857421875,0.0073089599609375,-0.00360107421875,-2.0293140411376953,0.10652405023574829,0.04420263320207596
2,2024-10-03T09:08:54.493Z,-0.01634850725531578,0.14127525687217712,1.0247995853424072,-0.0136566162109375,-0.006134033203125,0.00494384765625,-2.0293140411376953,0.10652405023574829,0.04420263320207596
3,2024-10-03T09:08:54.494Z,-0.0456286258995533,0.10662861913442612,1.0130877494812012,-0.0136566162109375,-0.006134033203125,0.00494384765625,-2.0293140411376953,0.10652405023574829,0.04420263320207596
4,2024-10-03T09:08:54.494Z,-0.0456286258995533,0.10662861913442612,1.0130877494812012,-0.006317138671875,-0.0018463134765625,0.00250244140625,-2.0293140411376953,0.10652405023574829,0.04420263320207596
5,2024-10-03T09:08:54.495Z,-0.0456286258995533,0.10662861913442612,1.0130877494812012,-0.006317138671875,-0.0018463134765625,0.00250244140625,-2.107755422592163,0.11051216721534729,0.038606103509664536
6,2024-10-03T09:08:54.495Z,-0.0456286258995533,0.10662861913442612,1.0130877494812012,-0.006317138671875,-0.0018463134765625,0.00250244140625,-2.1077051162719727,0.1100645512342453,0.039095956832170486
7,2024-10-03T09:08:54.506Z,-0.04514005407691002,0.10979966819286346,1.0211398601531982,-0.006317138671875,-0.0018463134765625,0.00250244140625,-2.1077051162719727,0.1100645512342453,0.039095956832170486
8,2024-10-03T09:08:54.506Z,-0.04514005407691002,0.10979966819286346,1.0211398601531982,-0.001434326171875,-0.0006256103515625,0.00128173828125,-2.1077051162719727,0.1100645512342453,0.039095956832170486
9,2024-10-03T09:08:54.524Z,-0.04514005407691002,0.10979966819286346,1.0211398601531982,-0.001434326171875,-0.0006256103515625,0.00128173828125,-2.1073532104492188,0.10866159200668335,0.04076675698161125
10,2024-10-03T09:08:54.531Z,-0.042700305581092834,0.1090683713555336,1.0211398601531982,-0.001434326171875,-0.0006256103515625,0.00128173828125,-2.1073532104492188,0.10866159200668335,0.04076675698161125
11,2024-10-03T09:08:54.532Z,-0.042700305581092834,0.1090683713555336,1.0211398601531982,0.002838134765625,0.0012054443359375,0.00006103515625,-2.1073532104492188,0.10866159200668335,0.04076675698161125
12,2024-10-03T09:08:54.557Z,-0.042700305581092834,0.1090683713555336,1.0211398601531982,0.002838134765625,0.0012054443359375,0.00006103515625,-2.1072423458099365,0.10795029252767563,0.041588492691516876
13,2024-10-03T09:08:54.557Z,-0.04318732023239136,0.10955538600683212,1.0191887617111206,0.002838134765625,0.0012054443359375,0.00006103515625,-2.1072423458099365,0.10795029252767563,0.041588492691516876
14,2024-10-03T09:08:54.557Z,-0.04318732023239136,0.10955538600683212,1.0191887617111206,0.0003814697265625,0.0018157958984375,-0.00115966796875,-2.1072423458099365,0.10795029252767563,0.041588492691516876
15,2024-10-03T09:08:54.584Z,-0.0456286258995533,0.10735992342233658,1.0162603855133057,0.0003814697265625,0.0018157958984375,-0.00115966796875,-2.1072423458099365,0.10795029252767563,0.041588492691516876
16,2024-10-03T09:08:54.584Z,-0.0456286258995533,0.10735992342233658,1.0162603855133057,0.001007080078125,0.0012054443359375,-0.00054931640625,-2.1072423458099365,0.10795029252767563,0.041588492691516876
17,2024-10-03T09:08:54.591Z,-0.0456286258995533,0.10735992342233658,1.0162603855133057,0.001007080078125,0.0012054443359375,-0.00054931640625,-2.106896162033081,0.1076352521777153,0.04214216768741608
18,2024-10-03T09:08:54.611Z,-0.044164467602968216,0.11077526211738586,1.0191887617111206,0.001007080078125,0.0012054443359375,-0.00054931640625,-2.106896162033081,0.1076352521777153,0.04214216768741608
19,2024-10-03T09:08:54.611Z,-0.044164467602968216,0.11077526211738586,1.0191887617111206,-0.000213623046875,-0.0018463134765625,0.00067138671875,-2.106896162033081,0.1076352521777153,0.04214216768741608
20,2024-10-03T09:08:54.624Z,-0.044164467602968216,0.11077526211738586,1.0191887617111206,-0.000213623046875,-0.0018463134765625,0.00067138671875,-2.1065714359283447,0.10741444677114487,0.0423395112156868
21,2024-10-03T09:08:54.638Z,-0.043920181691646576,0.10760420560836792,1.0184558629989624,-0.000213623046875,-0.0018463134765625,0.00067138671875,-2.1065714359283447,0.10741444677114487,0.0423395112156868
22,2024-10-03T09:08:54.638Z,-0.043920181691646576,0.10760420560836792,1.0184558629989624,-0.002655029296875,0.0012054443359375,-0.00054931640625,-2.1065714359283447,0.10741444677114487,0.0423395112156868
23,2024-10-03T09:08:54.658Z,-0.043920181691646576,0.10760420560836792,1.0184558629989624,-0.002655029296875,0.0012054443359375,-0.00054931640625,-2.1061084270477295,0.10713940858840942,0.042525120079517365
24,2024-10-03T09:08:54.664Z,-0.043920181691646576,0.10760420560836792,1.0184558629989624,-0.001434326171875,0.0005950927734375,0.00067138671875,-2.1061084270477295,0.10713940858840942,0.042525120079517365
25,2024-10-03T09:08:54.665Z,-0.04611564427614212,0.10979966819286346,1.0184558629989624,-0.001434326171875,0.0005950927734375,0.00067138671875,-2.1061084270477295,0.10713940858840942,0.042525120079517365
26,2024-10-03T09:08:54.691Z,-0.04611564427614212,0.10979966819286346,1.0184558629989624,-0.001434326171875,0.0005950927734375,0.00067138671875,-2.1052050590515137,0.10699187219142914,0.042708661407232285
27,2024-10-03T09:08:54.692Z,-0.043920181691646576,0.10857979953289032,1.0174802541732788,-0.001434326171875,0.0005950927734375,0.00067138671875,-2.1052050590515137,0.10699187219142914,0.042708661407232285
28,2024-10-03T09:08:54.692Z,-0.043920181691646576,0.10857979953289032,1.0174802541732788,0.0003814697265625,0.0005950927734375,0.00006103515625,-2.1052050590515137,0.10699187219142914,0.042708661407232285
29,2024-10-03T09:08:54.718Z,-0.043431606143713,0.11028824746608734,1.0196757316589355,0.0003814697265625,0.0005950927734375,0.00006103515625,-2.1052050590515137,0.10699187219142914,0.042708661407232285
30,2024-10-03T09:08:54.718Z,-0.043431606143713,0.11028824746608734,1.0196757316589355,-0.001434326171875,0.0012054443359375,0.00006103515625,-2.1052050590515137,0.10699187219142914,0.042708661407232285
31,2024-10-03T09:08:54.724Z,-0.043431606143713,0.11028824746608734,1.0196757316589355,-0.001434326171875,0.0012054443359375,0.00006103515625,-2.1037521362304688,0.10691767185926437,0.04273967817425728
32,2024-10-03T09:08:54.745Z,-0.044408753514289856,0.10784849524497986,1.018700122833252,-0.001434326171875,0.0012054443359375,0.00006103515625,-2.1037521362304688,0.10691767185926437,0.04273967817425728
33,2024-10-03T09:08:54.745Z,-0.044408753514289856,0.10784849524497986,1.018700122833252,-0.0020599365234375,0.0005950927734375,0.00006103515625,-2.1037521362304688,0.10691767185926437,0.04273967817425728
34,2024-10-03T09:08:54.758Z,-0.044408753514289856,0.10784849524497986,1.018700122833252,-0.0020599365234375,0.0005950927734375,0.00006103515625,-2.1024653911590576,0.10674851387739182,0.04282676801085472
35,2024-10-03T09:08:54.771Z,-0.042944591492414474,0.10833550989627838,1.0211398601531982,-0.0020599365234375,0.0005950927734375,0.00006103515625,-2.1024653911590576,0.10674851387739182,0.04282676801085472
36,2024-10-03T09:08:54.771Z,-0.042944591492414474,0.10833550989627838,1.0211398601531982,-0.001434326171875,-0.001251220703125,0.00006103515625,-2.1024653911590576,0.10674851387739182,0.04282676801085472
37,2024-10-03T09:08:54.793Z,-0.042944591492414474,0.10833550989627838,1.0211398601531982,-0.001434326171875,-0.001251220703125,0.00006103515625,-2.1006996631622314,0.10669084638357162,0.042845290154218674
38,2024-10-03T09:08:54.798Z,-0.043431606143713,0.10979966819286346,1.0206513404846191,-0.001434326171875,-0.001251220703125,0.00006103515625,-2.1006996631622314,0.10669084638357162,0.042845290154218674
39,2024-10-03T09:08:54.798Z,-0.043431606143713,0.10979966819286346,1.0206513404846191,-0.001434326171875,-0.0006256103515625,0.00067138671875,-2.1006996631622314,0.10669084638357162,0.042845290154218674
40,2024-10-03T09:08:54.825Z,-0.043431606143713,0.1090683713555336,1.0182116031646729,-0.001434326171875,-0.0006256103515625,0.00067138671875,-2.1006996631622314,0.10669084638357162,0.042845290154218674
41,2024-10-03T09:08:54.825Z,-0.043431606143713,0.1090683713555336,1.0182116031646729,-0.001434326171875,0.0012054443359375,0.00067138671875,-2.1006996631622314,0.10669084638357162,0.042845290154218674
42,2024-10-03T09:08:54.825Z,-0.043431606143713,0.1090683713555336,1.0182116031646729,-0.001434326171875,0.0012054443359375,0.00067138671875,-2.099851131439209,0.10652142763137817,0.04286065325140953
43,2024-10-03T09:08:54.852Z,-0.04489576816558838,0.10784849524497986,1.019431471824646,-0.001434326171875,0.0012054443359375,0.00067138671875,-2.099851131439209,0.10652142763137817,0.04286065325140953
44,2024-10-03T09:08:54.853Z,-0.04489576816558838,0.10784849524497986,1.019431471824646,-0.001434326171875,0.0005950927734375,-0.00054931640625,-2.099851131439209,0.10652142763137817,0.04286065325140953
45,2024-10-03T09:08:54.859Z,-0.04489576816558838,0.10784849524497986,1.019431471824646,-0.001434326171875,0.0005950927734375,-0.00054931640625,-2.0986719131469727,0.10643741488456726,0.04290901497006416
46,2024-10-03T09:08:54.878Z,-0.04538433998823166,0.10833550989627838,1.018700122833252,-0.001434326171875,0.0005950927734375,-0.00054931640625,-2.0986719131469727,0.10643741488456726,0.04290901497006416
47,2024-10-03T09:08:54.878Z,-0.04538433998823166,0.10833550989627838,1.018700122833252,-0.0020599365234375,0.0012054443359375,0.00006103515625,-2.0986719131469727,0.10643741488456726,0.04290901497006416
48,2024-10-03T09:08:54.892Z,-0.04538433998823166,0.10833550989627838,1.018700122833252,-0.0020599365234375,0.0012054443359375,0.00006103515625,-2.0969319343566895,0.10640199482440948,0.042929477989673615
49,2024-10-03T09:08:54.905Z,-0.04538433998823166,0.10833550989627838,1.0179673433303833,-0.0020599365234375,0.0012054443359375,0.00006103515625,-2.0969319343566895,0.10640199482440948,0.042929477989673615
50,2024-10-03T09:08:54.905Z,-0.04538433998823166,0.10833550989627838,1.0179673433303833,-0.001434326171875,0.0005950927734375,-0.00054931640625,-2.0969319343566895,0.10640199482440948,0.042929477989673615
51,2024-10-03T09:08:54.929Z,-0.04538433998823166,0.10833550989627838,1.0179673433303833,-0.001434326171875,0.0005950927734375,-0.00054931640625,-2.0958173274993896,0.10635463893413544,0.04299674928188324
52,2024-10-03T09:08:54.930Z,-0.04489576816558838,0.10833550989627838,1.018700122833252,-0.001434326171875,0.0005950927734375,-0.00054931640625,-2.0958173274993896,0.10635463893413544,0.04299674928188324
53,2024-10-03T09:08:54.932Z,-0.04489576816558838,0.10833550989627838,1.018700122833252,-0.001434326171875,0.0012054443359375,0.00006103515625,-2.0958173274993896,0.10635463893413544,0.04299674928188324
54,2024-10-03T09:08:54.957Z,-0.0456286258995533,0.1100439578294754,1.0177245140075684,-0.001434326171875,0.0012054443359375,0.00006103515625,-2.0958173274993896,0.10635463893413544,0.04299674928188324
55,2024-10-03T09:08:54.962Z,-0.0456286258995533,0.1100439578294754,1.0177245140075684,-0.000213623046875,0.0012054443359375,0.00067138671875,-2.0958173274993896,0.10635463893413544,0.04299674928188324
56,2024-10-03T09:08:54.962Z,-0.0456286258995533,0.1100439578294754,1.0177245140075684,-0.000213623046875,0.0012054443359375,0.00067138671875,-2.094442129135132,0.1062912717461586,0.04303153604269028
57,2024-10-03T09:08:54.983Z,-0.04318732023239136,0.10833550989627838,1.019919991493225,-0.000213623046875,0.0012054443359375,0.00067138671875,-2.094442129135132,0.1062912717461586,0.04303153604269028
58,2024-10-03T09:08:54.985Z,-0.04318732023239136,0.10833550989627838,1.019919991493225,-0.0008392333984375,-0.0006256103515625,-0.00115966796875,-2.094442129135132,0.1062912717461586,0.04303153604269028
59,2024-10-03T09:08:54.996Z,-0.04318732023239136,0.10833550989627838,1.019919991493225,-0.0008392333984375,-0.0006256103515625,-0.00115966796875,-2.0930542945861816,0.10624310374259949,0.0430305190384388
60,2024-10-03T09:08:55.010Z,-0.043431606143713,0.10662861913442612,1.0177245140075684,-0.0008392333984375,-0.0006256103515625,-0.00115966796875,-2.0930542945861816,0.10624310374259949,0.0430305190384388
61,2024-10-03T09:08:55.013Z,-0.043431606143713,0.10662861913442612,1.0177245140075684,-0.001434326171875,0.0005950927734375,0.00006103515625,-2.0930542945861816,0.10624310374259949,0.0430305190384388
62,2024-10-03T09:08:55.031Z,-0.043431606143713,0.10662861913442612,1.0177245140075684,-0.001434326171875,0.0005950927734375,0.00006103515625,-2.092585325241089,0.10619916021823883,0.0430576354265213
63,2024-10-03T09:08:55.036Z,-0.043431606143713,0.10784849524497986,1.018700122833252,-0.001434326171875,0.0005950927734375,0.00006103515625,-2.092585325241089,0.10619916021823883,0.0430576354265213
64,2024-10-03T09:08:55.041Z,-0.043431606143713,0.10784849524497986,1.018700122833252,-0.000213623046875,-0.001251220703125,0.00006103515625,-2.092585325241089,0.10619916021823883,0.0430576354265213
65,2024-10-03T09:08:55.062Z,-0.04465148225426674,0.10833550989627838,1.0184558629989624,-0.000213623046875,-0.001251220703125,0.00006103515625,-2.092585325241089,0.10619916021823883,0.0430576354265213
66,2024-10-03T09:08:55.062Z,-0.04465148225426674,0.10833550989627838,1.0184558629989624,-0.000213623046875,-0.001251220703125,0.00006103515625,-2.0919909477233887,0.10616405308246613,0.04307335615158081
67,2024-10-03T09:08:55.068Z,-0.04465148225426674,0.10833550989627838,1.0184558629989624,-0.0008392333984375,0.0005950927734375,0.00067138671875,-2.0919909477233887,0.10616405308246613,0.04307335615158081
68,2024-10-03T09:08:55.092Z,-0.04318732023239136,0.10735992342233658,1.0177245140075684,-0.0008392333984375,0.0005950927734375,0.00067138671875,-2.0919909477233887,0.10616405308246613,0.04307335615158081
69,2024-10-03T09:08:55.095Z,-0.04318732023239136,0.10735992342233658,1.0177245140075684,-0.0008392333984375,0.0005950927734375,0.00067138671875,-2.0902600288391113,0.10612305998802185,0.043088652193546295
70,2024-10-03T09:08:55.096Z,-0.04318732023239136,0.10735992342233658,1.0177245140075684,0.002227783203125,-0.0018463134765625,0.00006103515625,-2.0902600288391113,0.10612305998802185,0.043088652193546295
71,2024-10-03T09:08:55.122Z,-0.043920181691646576,0.10784849524497986,1.0204086303710938,0.002227783203125,-0.0018463134765625,0.00006103515625,-2.0902600288391113,0.10612305998802185,0.043088652193546295
72,2024-10-03T09:08:55.127Z,-0.043920181691646576,0.10784849524497986,1.0204086303710938,0.003448486328125,-0.000030517578125,-0.00054931640625,-2.0902600288391113,0.10612305998802185,0.043088652193546295
73,2024-10-03T09:08:55.134Z,-0.043920181691646576,0.10784849524497986,1.0204086303710938,0.003448486328125,-0.000030517578125,-0.00054931640625,-2.089106321334839,0.10610503703355789,0.043136537075042725
74,2024-10-03T09:08:55.149Z,-0.04514005407691002,0.10735992342233658,1.0174802541732788,0.003448486328125,-0.000030517578125,-0.00054931640625,-2.089106321334839,0.10610503703355789,0.043136537075042725
75,2024-10-03T09:08:55.154Z,-0.04514005407691002,0.10735992342233658,1.0174802541732788,0.001007080078125,-0.0006256103515625,0.00067138671875,-2.089106321334839,0.10610503703355789,0.043136537075042725
76,2024-10-03T09:08:55.163Z,-0.04514005407691002,0.10735992342233658,1.0174802541732788,0.001007080078125,-0.0006256103515625,0.00067138671875,-2.0883054733276367,0.10616499185562134,0.04320702329277992
77,2024-10-03T09:08:55.181Z,-0.04514005407691002,0.10955538600683212,1.018700122833252,0.001007080078125,-0.0006256103515625,0.00067138671875,-2.0883054733276367,0.10616499185562134,0.04320702329277992
78,2024-10-03T09:08:55.182Z,-0.04514005407691002,0.10955538600683212,1.018700122833252,-0.002655029296875,-0.001251220703125,0.00006103515625,-2.0883054733276367,0.10616499185562134,0.04320702329277992
79,2024-10-03T09:08:55.194Z,-0.04514005407691002,0.10955538600683212,1.018700122833252,-0.002655029296875,-0.001251220703125,0.00006103515625,-2.086646556854248,0.10615455359220505,0.04321402683854103
80,2024-10-03T09:08:55.207Z,-0.04514005407691002,0.1090683713555336,1.0208956003189087,-0.002655029296875,-0.001251220703125,0.00006103515625,-2.086646556854248,0.10615455359220505,0.04321402683854103
81,2024-10-03T09:08:55.211Z,-0.04514005407691002,0.1090683713555336,1.0208956003189087,-0.0020599365234375,-0.000030517578125,0.00006103515625,-2.086646556854248,0.10615455359220505,0.04321402683854103
82,2024-10-03T09:08:55.231Z,-0.04514005407691002,0.1090683713555336,1.0208956003189087,-0.0020599365234375,-0.000030517578125,0.00006103515625,-2.085698127746582,0.10617145150899887,0.04323612526059151
83,2024-10-03T09:08:55.233Z,-0.043920181691646576,0.10931265354156494,1.019431471824646,-0.0020599365234375,-0.000030517578125,0.00006103515625,-2.085698127746582,0.10617145150899887,0.04323612526059151
84,2024-10-03T09:08:55.237Z,-0.043920181691646576,0.10931265354156494,1.019431471824646,-0.0008392333984375,0.0005950927734375,0.00067138671875,-2.085698127746582,0.10617145150899887,0.04323612526059151
85,2024-10-03T09:08:55.260Z,-0.04489576816558838,0.10882408171892166,1.0160161256790161,-0.0008392333984375,0.0005950927734375,0.00067138671875,-2.085698127746582,0.10617145150899887,0.04323612526059151
86,2024-10-03T09:08:55.265Z,-0.04489576816558838,0.10882408171892166,1.0160161256790161,-0.0008392333984375,-0.000030517578125,-0.00054931640625,-2.085698127746582,0.10617145150899887,0.04323612526059151
87,2024-10-03T09:08:55.265Z,-0.04489576816558838,0.10882408171892166,1.0160161256790161,-0.0008392333984375,-0.000030517578125,-0.00054931640625,-2.084747314453125,0.10607150197029114,0.043236542493104935
88,2024-10-03T09:08:55.285Z,-0.04367589205503464,0.10735992342233658,1.0162603855133057,-0.0008392333984375,-0.000030517578125,-0.00054931640625,-2.084747314453125,0.10607150197029114,0.043236542493104935
89,2024-10-03T09:08:55.290Z,-0.04367589205503464,0.10735992342233658,1.0162603855133057,0.001007080078125,-0.000030517578125,-0.00115966796875,-2.084747314453125,0.10607150197029114,0.043236542493104935
90,2024-10-03T09:08:55.299Z,-0.04367589205503464,0.10735992342233658,1.0162603855133057,0.001007080078125,-0.000030517578125,-0.00115966796875,-2.0833740234375,0.1060229167342186,0.04328468069434166
91,2024-10-03T09:08:55.314Z,-0.042944591492414474,0.10809122025966644,1.0189443826675415,0.001007080078125,-0.000030517578125,-0.00115966796875,-2.0833740234375,0.1060229167342186,0.04328468069434166
92,2024-10-03T09:08:55.317Z,-0.042944591492414474,0.10809122025966644,1.0189443826675415,0.003448486328125,-0.000030517578125,-0.00054931640625,-2.0833740234375,0.1060229167342186,0.04328468069434166
93,2024-10-03T09:08:55.336Z,-0.042944591492414474,0.10809122025966644,1.0189443826675415,0.003448486328125,-0.000030517578125,-0.00054931640625,-2.081805467605591,0.10606382042169571,0.04331992194056511
94,2024-10-03T09:08:55.341Z,-0.04367589205503464,0.10955538600683212,1.0201643705368042,0.003448486328125,-0.000030517578125,-0.00054931640625,-2.081805467605591,0.10606382042169571,0.04331992194056511
95,2024-10-03T09:08:55.343Z,-0.04367589205503464,0.10955538600683212,1.0201643705368042,0.002838134765625,0.0012054443359375,-0.00054931640625,-2.081805467605591,0.10606382042169571,0.04331992194056511
96,2024-10-03T09:08:55.369Z,-0.04367589205503464,0.10955538600683212,1.0201643705368042,0.002838134765625,0.0012054443359375,-0.00054931640625,-2.08209228515625,0.1061510294675827,0.043311405926942825
97,2024-10-03T09:08:55.369Z,-0.042456019669771194,0.11126383394002914,1.019431471824646,0.002838134765625,0.0012054443359375,-0.00054931640625,-2.08209228515625,0.1061510294675827,0.043311405926942825
98,2024-10-03T09:08:55.375Z,-0.042456019669771194,0.11126383394002914,1.019431471824646,0.001007080078125,0.0005950927734375,0.00006103515625,-2.08209228515625,0.1061510294675827,0.043311405926942825
99,2024-10-03T09:08:55.396Z,-0.04465148225426674,0.1110195443034172,1.0223597288131714,0.001007080078125,0.0005950927734375,0.00006103515625,-2.08209228515625,0.1061510294675827,0.043311405926942825
100,2024-10-03T09:08:55.397Z,-0.04465148225426674,0.1110195443034172,1.0223597288131714,0.001007080078125,0.0005950927734375,0.00006103515625,-2.081651449203491,0.10624133795499802,0.04332461953163147
101,2024-10-03T09:08:55.401Z,-0.04465148225426674,0.1110195443034172,1.0223597288131714,-0.0008392333984375,0.0012054443359375,0.00006103515625,-2.081651449203491,0.10624133795499802,0.04332461953163147
102,2024-10-03T09:08:55.424Z,-0.0456286258995533,0.10931265354156494,1.0189443826675415,-0.0008392333984375,0.0012054443359375,0.00006103515625,-2.081651449203491,0.10624133795499802,0.04332461953163147
103,2024-10-03T09:08:55.431Z,-0.0456286258995533,0.10931265354156494,1.0189443826675415,0.001007080078125,-0.0006256103515625,0.00067138671875,-2.081651449203491,0.10624133795499802,0.04332461953163147
104,2024-10-03T09:08:55.433Z,-0.0456286258995533,0.10931265354156494,1.0189443826675415,0.001007080078125,-0.0006256103515625,0.00067138671875,-2.0813803672790527,0.10622202605009079,0.04338087886571884
105,2024-10-03T09:08:55.450Z,-0.042211733758449554,0.10760420560836792,1.0189443826675415,0.001007080078125,-0.0006256103515625,0.00067138671875,-2.0813803672790527,0.10622202605009079,0.04338087886571884
106,2024-10-03T09:08:55.456Z,-0.042211733758449554,0.10760420560836792,1.0189443826675415,0.002227783203125,0.0012054443359375,0.00067138671875,-2.0813803672790527,0.10622202605009079,0.04338087886571884
107,2024-10-03T09:08:55.464Z,-0.042211733758449554,0.10760420560836792,1.0189443826675415,0.002227783203125,0.0012054443359375,0.00067138671875,-2.0811667442321777,0.10622270405292511,0.043430913239717484
108,2024-10-03T09:08:55.481Z,-0.043431606143713,0.10979966819286346,1.019919991493225,0.002227783203125,0.0012054443359375,0.00067138671875,-2.0811667442321777,0.10622270405292511,0.043430913239717484
109,2024-10-03T09:08:55.482Z,-0.043431606143713,0.10979966819286346,1.019919991493225,0.003448486328125,-0.000030517578125,0.00067138671875,-2.0811667442321777,0.10622270405292511,0.043430913239717484
110,2024-10-03T09:08:55.502Z,-0.043431606143713,0.10979966819286346,1.019919991493225,0.003448486328125,-0.000030517578125,0.00067138671875,-2.0816292762756348,0.10625089704990387,0.04347651079297066
111,2024-10-03T09:08:55.508Z,-0.04514005407691002,0.11223942041397095,1.0179673433303833,0.003448486328125,-0.000030517578125,0.00067138671875,-2.0816292762756348,0.10625089704990387,0.04347651079297066
112,2024-10-03T09:08:55.508Z,-0.04514005407691002,0.11223942041397095,1.0179673433303833,0.001617431640625,0.0005950927734375,-0.00115966796875,-2.0816292762756348,0.10625089704990387,0.04347651079297066
113,2024-10-03T09:08:55.617Z,-0.044408753514289856,0.10882408171892166,1.0160161256790161,0.001617431640625,0.0005950927734375,-0.00115966796875,-2.0816292762756348,0.10625089704990387,0.04347651079297066
114,2024-10-03T09:08:55.617Z,-0.044408753514289856,0.10882408171892166,1.0160161256790161,-0.0008392333984375,-0.0006256103515625,0.00067138671875,-2.0816292762756348,0.10625089704990387,0.04347651079297066
115,2024-10-03T09:08:55.618Z,-0.04514005407691002,0.10711563378572464,1.0196757316589355,-0.0008392333984375,-0.0006256103515625,0.00067138671875,-2.0816292762756348,0.10625089704990387,0.04347651079297066
116,2024-10-03T09:08:55.619Z,-0.04514005407691002,0.10711563378572464,1.0196757316589355,-0.001434326171875,-0.000030517578125,0.00128173828125,-2.0816292762756348,0.10625089704990387,0.04347651079297066
117,2024-10-03T09:08:55.619Z,-0.04123614355921745,0.1090683713555336,1.0191887617111206,-0.001434326171875,-0.000030517578125,0.00128173828125,-2.0816292762756348,0.10625089704990387,0.04347651079297066
118,2024-10-03T09:08:55.619Z,-0.04123614355921745,0.1090683713555336,1.0191887617111206,-0.001434326171875,0.0005950927734375,0.00006103515625,-2.0816292762756348,0.10625089704990387,0.04347651079297066
119,2024-10-03T09:08:55.620Z,-0.04123614355921745,0.1090683713555336,1.0191887617111206,-0.001434326171875,0.0005950927734375,0.00006103515625,-2.080197811126709,0.10626725852489471,0.043471112847328186
120,2024-10-03T09:08:55.620Z,-0.04318732023239136,0.10955538600683212,1.0201643705368042,-0.001434326171875,0.0005950927734375,0.00006103515625,-2.080197811126709,0.10626725852489471,0.043471112847328186
121,2024-10-03T09:08:55.620Z,-0.04318732023239136,0.10955538600683212,1.0201643705368042,0.0003814697265625,0.0018157958984375,-0.00115966796875,-2.080197811126709,0.10626725852489471,0.043471112847328186
122,2024-10-03T09:08:55.620Z,-0.04318732023239136,0.10955538600683212,1.0201643705368042,0.0003814697265625,0.0018157958984375,-0.00115966796875,-2.080197811126709,0.10626725852489471,0.043471112847328186
123,2024-10-03T09:08:55.620Z,-0.04318732023239136,0.10955538600683212,1.0201643705368042,0.0003814697265625,0.0018157958984375,-0.00115966796875,-2.0801994800567627,0.1062752902507782,0.04346399009227753
124,2024-10-03T09:08:55.630Z,-0.04318732023239136,0.10955538600683212,1.0201643705368042,0.0003814697265625,0.0018157958984375,-0.00115966796875,-2.080394983291626,0.10627822577953339,0.04347012937068939
125,2024-10-03T09:08:55.648Z,-0.043920181691646576,0.10809122025966644,1.0204086303710938,0.0003814697265625,0.0018157958984375,-0.00115966796875,-2.080394983291626,0.10627822577953339,0.04347012937068939
126,2024-10-03T09:08:55.648Z,-0.043920181691646576,0.10809122025966644,1.0204086303710938,0.0003814697265625,-0.000030517578125,-0.00054931640625,-2.080394983291626,0.10627822577953339,0.04347012937068939
127,2024-10-03T09:08:55.665Z,-0.043920181691646576,0.10809122025966644,1.0204086303710938,0.0003814697265625,-0.000030517578125,-0.00054931640625,-2.0802462100982666,0.10622651129961014,0.043491803109645844
128,2024-10-03T09:08:55.674Z,-0.044408753514289856,0.11053252965211868,1.0184558629989624,0.0003814697265625,-0.000030517578125,-0.00054931640625,-2.0802462100982666,0.10622651129961014,0.043491803109645844
129,2024-10-03T09:08:55.675Z,-0.044408753514289856,0.11053252965211868,1.0184558629989624,-0.0020599365234375,0.0005950927734375,0.00006103515625,-2.0802462100982666,0.10622651129961014,0.043491803109645844
130,2024-10-03T09:08:55.702Z,-0.044164467602968216,0.1068713515996933,1.018700122833252,-0.0020599365234375,0.0005950927734375,0.00006103515625,-2.0802462100982666,0.10622651129961014,0.043491803109645844
131,2024-10-03T09:08:55.702Z,-0.044164467602968216,0.1068713515996933,1.018700122833252,-0.001434326171875,-0.0018463134765625,0.00006103515625,-2.0802462100982666,0.10622651129961014,0.043491803109645844
132,2024-10-03T09:08:55.702Z,-0.044164467602968216,0.1068713515996933,1.018700122833252,-0.001434326171875,-0.0018463134765625,0.00006103515625,-2.080125093460083,0.1061718687415123,0.04344778135418892
133,2024-10-03T09:08:55.729Z,-0.04465148225426674,0.1100439578294754,1.0204086303710938,-0.001434326171875,-0.0018463134765625,0.00006103515625,-2.080125093460083,0.1061718687415123,0.04344778135418892
134,2024-10-03T09:08:55.731Z,-0.04465148225426674,0.1100439578294754,1.0204086303710938,-0.001434326171875,-0.0018463134765625,0.00006103515625,-2.079589605331421,0.10610014945268631,0.0435183085501194
135,2024-10-03T09:08:55.731Z,-0.04465148225426674,0.1100439578294754,1.0204086303710938,0.001007080078125,-0.000030517578125,-0.00115966796875,-2.079589605331421,0.10610014945268631,0.0435183085501194
136,2024-10-03T09:08:55.754Z,-0.042700305581092834,0.11126383394002914,1.0204086303710938,0.001007080078125,-0.000030517578125,-0.00115966796875,-2.079589605331421,0.10610014945268631,0.0435183085501194
137,2024-10-03T09:08:55.757Z,-0.042700305581092834,0.11126383394002914,1.0204086303710938,0.002227783203125,0.0012054443359375,-0.00054931640625,-2.079589605331421,0.10610014945268631,0.0435183085501194
138,2024-10-03T09:08:55.764Z,-0.042700305581092834,0.11126383394002914,1.0204086303710938,0.002227783203125,0.0012054443359375,-0.00054931640625,-2.079702854156494,0.1062430590391159,0.043511033058166504
139,2024-10-03T09:08:55.782Z,-0.04709123447537422,0.10784849524497986,1.019431471824646,0.002227783203125,0.0012054443359375,-0.00054931640625,-2.079702854156494,0.1062430590391159,0.043511033058166504
140,2024-10-03T09:08:55.784Z,-0.04709123447537422,0.10784849524497986,1.019431471824646,-0.001434326171875,0.0012054443359375,-0.00115966796875,-2.079702854156494,0.1062430590391159,0.043511033058166504
141,2024-10-03T09:08:55.800Z,-0.04709123447537422,0.10784849524497986,1.019431471824646,-0.001434326171875,0.0012054443359375,-0.00115966796875,-2.079559803009033,0.10619127750396729,0.04353785887360573
142,2024-10-03T09:08:55.808Z,-0.04587135836482048,0.10711563378572464,1.0182116031646729,-0.001434326171875,0.0012054443359375,-0.00115966796875,-2.079559803009033,0.10619127750396729,0.04353785887360573
143,2024-10-03T09:08:55.814Z,-0.04587135836482048,0.10711563378572464,1.0182116031646729,-0.000213623046875,0.0005950927734375,0.00006103515625,-2.079559803009033,0.10619127750396729,0.04353785887360573
144,2024-10-03T09:08:55.831Z,-0.04587135836482048,0.10711563378572464,1.0182116031646729,-0.000213623046875,0.0005950927734375,0.00006103515625,-2.078369140625,0.10610432922840118,0.043552882969379425
145,2024-10-03T09:08:55.834Z,-0.04367589205503464,0.11175240576267242,1.0206513404846191,-0.000213623046875,0.0005950927734375,0.00006103515625,-2.078369140625,0.10610432922840118,0.043552882969379425
146,2024-10-03T09:08:55.840Z,-0.04367589205503464,0.11175240576267242,1.0206513404846191,-0.000213623046875,-0.0006256103515625,0.00189208984375,-2.078369140625,0.10610432922840118,0.043552882969379425
147,2024-10-03T09:08:55.863Z,-0.04367589205503464,0.11175240576267242,1.0206513404846191,-0.000213623046875,-0.0006256103515625,0.00189208984375,-2.077777862548828,0.10608962178230286,0.0435350202023983
148,2024-10-03T09:08:55.866Z,-0.04587135836482048,0.10784849524497986,1.019431471824646,-0.000213623046875,-0.0006256103515625,0.00189208984375,-2.077777862548828,0.10608962178230286,0.0435350202023983
149,2024-10-03T09:08:55.867Z,-0.04587135836482048,0.10784849524497986,1.019431471824646,0.0003814697265625,0.0005950927734375,0.00006103515625,-2.077777862548828,0.10608962178230286,0.0435350202023983
150,2024-10-03T09:08:55.893Z,-0.044164467602968216,0.10955538600683212,1.0189443826675415,0.0003814697265625,0.0005950927734375,0.00006103515625,-2.077777862548828,0.10608962178230286,0.0435350202023983
151,2024-10-03T09:08:55.894Z,-0.044164467602968216,0.10955538600683212,1.0189443826675415,-0.002655029296875,-0.001251220703125,0.00067138671875,-2.077777862548828,0.10608962178230286,0.0435350202023983
152,2024-10-03T09:08:55.901Z,-0.044164467602968216,0.10955538600683212,1.0189443826675415,-0.002655029296875,-0.001251220703125,0.00067138671875,-2.0777604579925537,0.10603731870651245,0.043567955493927
153,2024-10-03T09:08:55.919Z,-0.04587135836482048,0.1100439578294754,1.0167474746704102,-0.002655029296875,-0.001251220703125,0.00067138671875,-2.0777604579925537,0.10603731870651245,0.043567955493927
154,2024-10-03T09:08:55.920Z,-0.04587135836482048,0.1100439578294754,1.0167474746704102,0.001617431640625,0.0012054443359375,0.00006103515625,-2.0777604579925537,0.10603731870651245,0.043567955493927
155,2024-10-03T09:08:55.932Z,-0.04587135836482048,0.1100439578294754,1.0167474746704102,0.001617431640625,0.0012054443359375,0.00006103515625,-2.0769011974334717,0.10604982823133469,0.043567344546318054
156,2024-10-03T09:08:55.947Z,-0.0466042160987854,0.10931265354156494,1.0206513404846191,0.001617431640625,0.0012054443359375,0.00006103515625,-2.0769011974334717,0.10604982823133469,0.043567344546318054
157,2024-10-03T09:08:55.948Z,-0.0466042160987854,0.10931265354156494,1.0206513404846191,0.0003814697265625,-0.001251220703125,-0.00054931640625,-2.0769011974334717,0.10604982823133469,0.043567344546318054
158,2024-10-03T09:08:55.966Z,-0.0466042160987854,0.10931265354156494,1.0206513404846191,0.0003814697265625,-0.001251220703125,-0.00054931640625,-2.0768699645996094,0.10606615245342255,0.04360203817486763
159,2024-10-03T09:08:55.975Z,-0.043431606143713,0.11199669539928436,1.0196757316589355,0.0003814697265625,-0.001251220703125,-0.00054931640625,-2.0768699645996094,0.10606615245342255,0.04360203817486763
160,2024-10-03T09:08:55.976Z,-0.043431606143713,0.11199669539928436,1.0196757316589355,-0.0008392333984375,-0.000030517578125,-0.00115966796875,-2.0768699645996094,0.10606615245342255,0.04360203817486763
161,2024-10-03T09:08:56.005Z,-0.043431606143713,0.11199669539928436,1.0196757316589355,-0.0008392333984375,-0.000030517578125,-0.00115966796875,-2.0766472816467285,0.1060853973031044,0.043577566742897034
162,2024-10-03T09:08:56.007Z,-0.04514005407691002,0.10809122025966644,1.0189443826675415,-0.0008392333984375,-0.000030517578125,-0.00115966796875,-2.0766472816467285,0.1060853973031044,0.043577566742897034
163,2024-10-03T09:08:56.007Z,-0.04514005407691002,0.10809122025966644,1.0189443826675415,-0.0008392333984375,0.0005950927734375,0.00128173828125,-2.0766472816467285,0.1060853973031044,0.043577566742897034
164,2024-10-03T09:08:56.037Z,-0.04367589205503464,0.1090683713555336,1.019431471824646,-0.0008392333984375,0.0005950927734375,0.00128173828125,-2.0766472816467285,0.1060853973031044,0.043577566742897034
165,2024-10-03T09:08:56.038Z,-0.04367589205503464,0.1090683713555336,1.019431471824646,-0.0008392333984375,0.0005950927734375,-0.00115966796875,-2.0766472816467285,0.1060853973031044,0.043577566742897034
166,2024-10-03T09:08:56.038Z,-0.04367589205503464,0.1090683713555336,1.019431471824646,-0.0008392333984375,0.0005950927734375,-0.00115966796875,-2.076127290725708,0.10597409307956696,0.04363807663321495
167,2024-10-03T09:08:56.057Z,-0.04514005407691002,0.1090683713555336,1.0189443826675415,-0.0008392333984375,0.0005950927734375,-0.00115966796875,-2.076127290725708,0.10597409307956696,0.04363807663321495
168,2024-10-03T09:08:56.064Z,-0.04514005407691002,0.1090683713555336,1.0189443826675415,-0.000213623046875,-0.000030517578125,-0.00054931640625,-2.076127290725708,0.10597409307956696,0.04363807663321495
169,2024-10-03T09:08:56.064Z,-0.04514005407691002,0.1090683713555336,1.0189443826675415,-0.000213623046875,-0.000030517578125,-0.00054931640625,-2.0758512020111084,0.10602892190217972,0.04360072687268257
170,2024-10-03T09:08:56.087Z,-0.044408753514289856,0.10857979953289032,1.0189443826675415,-0.000213623046875,-0.000030517578125,-0.00054931640625,-2.0758512020111084,0.10602892190217972,0.04360072687268257
171,2024-10-03T09:08:56.095Z,-0.044408753514289856,0.10857979953289032,1.0189443826675415,-0.001434326171875,0.0012054443359375,0.00006103515625,-2.0758512020111084,0.10602892190217972,0.04360072687268257
172,2024-10-03T09:08:56.100Z,-0.044408753514289856,0.10857979953289032,1.0189443826675415,-0.001434326171875,0.0012054443359375,0.00006103515625,-2.07560396194458,0.10599210858345032,0.043612461537122726
173,2024-10-03T09:08:56.114Z,-0.043920181691646576,0.11028824746608734,1.0196757316589355,-0.001434326171875,0.0012054443359375,0.00006103515625,-2.07560396194458,0.10599210858345032,0.043612461537122726
174,2024-10-03T09:08:56.123Z,-0.043920181691646576,0.11028824746608734,1.0196757316589355,-0.000213623046875,-0.000030517578125,0.00128173828125,-2.07560396194458,0.10599210858345032,0.043612461537122726
175,2024-10-03T09:08:56.135Z,-0.043920181691646576,0.11028824746608734,1.0196757316589355,-0.000213623046875,-0.000030517578125,0.00128173828125,-2.0755155086517334,0.10603249073028564,0.04357585310935974
176,2024-10-03T09:08:56.141Z,-0.042700305581092834,0.11150811612606049,1.0201643705368042,-0.000213623046875,-0.000030517578125,0.00128173828125,-2.0755155086517334,0.10603249073028564,0.04357585310935974
177,2024-10-03T09:08:56.152Z,-0.042700305581092834,0.11150811612606049,1.0201643705368042,0.001007080078125,0.0005950927734375,0.00128173828125,-2.0755155086517334,0.10603249073028564,0.04357585310935974
178,2024-10-03T09:08:56.170Z,-0.042700305581092834,0.11150811612606049,1.0201643705368042,0.001007080078125,0.0005950927734375,0.00128173828125,-2.075730323791504,0.1060374528169632,0.04354635253548622
179,2024-10-03T09:08:56.176Z,-0.04489576816558838,0.10931265354156494,1.0189443826675415,0.001007080078125,0.0005950927734375,0.00128173828125,-2.075730323791504,0.1060374528169632,0.04354635253548622
180,2024-10-03T09:08:56.185Z,-0.04489576816558838,0.10931265354156494,1.0189443826675415,-0.000213623046875,0.0012054443359375,-0.00115966796875,-2.075730323791504,0.1060374528169632,0.04354635253548622
181,2024-10-03T09:08:56.202Z,-0.04489576816558838,0.10784849524497986,1.0196757316589355,-0.000213623046875,0.0012054443359375,-0.00115966796875,-2.075730323791504,0.1060374528169632,0.04354635253548622
182,2024-10-03T09:08:56.203Z,-0.04489576816558838,0.10784849524497986,1.0196757316589355,-0.000213623046875,0.0012054443359375,-0.00115966796875,-2.0754334926605225,0.10605877637863159,0.043559979647397995
183,2024-10-03T09:08:56.208Z,-0.04489576816558838,0.10784849524497986,1.0196757316589355,0.0003814697265625,0.0005950927734375,-0.00115966796875,-2.0754334926605225,0.10605877637863159,0.043559979647397995
184,2024-10-03T09:08:56.228Z,-0.04465148225426674,0.10784849524497986,1.0182116031646729,0.0003814697265625,0.0005950927734375,-0.00115966796875,-2.0754334926605225,0.10605877637863159,0.043559979647397995
185,2024-10-03T09:08:56.233Z,-0.04465148225426674,0.10784849524497986,1.0182116031646729,0.0003814697265625,0.0005950927734375,-0.00115966796875,-2.0742979049682617,0.10602833330631256,0.04355397820472717
186,2024-10-03T09:08:56.233Z,-0.04465148225426674,0.10784849524497986,1.0182116031646729,-0.0020599365234375,0.0005950927734375,-0.00115966796875,-2.0742979049682617,0.10602833330631256,0.04355397820472717
187,2024-10-03T09:08:56.255Z,-0.043920181691646576,0.11053252965211868,1.0177245140075684,-0.0020599365234375,0.0005950927734375,-0.00115966796875,-2.0742979049682617,0.10602833330631256,0.04355397820472717
188,2024-10-03T09:08:56.260Z,-0.043920181691646576,0.11053252965211868,1.0177245140075684,0.0003814697265625,-0.000030517578125,0.00006103515625,-2.0742979049682617,0.10602833330631256,0.04355397820472717
189,2024-10-03T09:08:56.264Z,-0.043920181691646576,0.11053252965211868,1.0177245140075684,0.0003814697265625,-0.000030517578125,0.00006103515625,-2.0739293098449707,0.10604047775268555,0.04359080642461777
190,2024-10-03T09:08:56.284Z,-0.0456286258995533,0.10760420560836792,1.0169917345046997,0.0003814697265625,-0.000030517578125,0.00006103515625,-2.0739293098449707,0.10604047775268555,0.04359080642461777
191,2024-10-03T09:08:56.293Z,-0.0456286258995533,0.10760420560836792,1.0169917345046997,-0.000213623046875,-0.000030517578125,0.00006103515625,-2.0739293098449707,0.10604047775268555,0.04359080642461777
192,2024-10-03T09:08:56.307Z,-0.0456286258995533,0.10760420560836792,1.0169917345046997,-0.000213623046875,-0.000030517578125,0.00006103515625,-2.0739314556121826,0.1060480922460556,0.04358179122209549
193,2024-10-03T09:08:56.312Z,-0.04465148225426674,0.10784849524497986,1.0191887617111206,-0.000213623046875,-0.000030517578125,0.00006103515625,-2.0739314556121826,0.1060480922460556,0.04358179122209549
194,2024-10-03T09:08:56.314Z,-0.04465148225426674,0.10784849524497986,1.0191887617111206,0.001617431640625,-0.0018463134765625,0.00067138671875,-2.0739314556121826,0.1060480922460556,0.04358179122209549
195,2024-10-03T09:08:56.331Z,-0.04465148225426674,0.10784849524497986,1.0191887617111206,0.001617431640625,-0.0018463134765625,0.00067138671875,-2.073716163635254,0.10610059648752213,0.043577179312705994
196,2024-10-03T09:08:56.336Z,-0.04587135836482048,0.10809122025966644,1.019431471824646,0.001617431640625,-0.0018463134765625,0.00067138671875,-2.073716163635254,0.10610059648752213,0.043577179312705994
197,2024-10-03T09:08:56.340Z,-0.04587135836482048,0.10809122025966644,1.019431471824646,0.0003814697265625,-0.001251220703125,-0.00054931640625,-2.073716163635254,0.10610059648752213,0.043577179312705994
198,2024-10-03T09:08:56.365Z,-0.04587135836482048,0.10809122025966644,1.019431471824646,0.0003814697265625,-0.001251220703125,-0.00054931640625,-2.0735371112823486,0.1061428040266037,0.04357537999749184
199,2024-10-03T09:08:56.365Z,-0.044164467602968216,0.1090683713555336,1.0189443826675415,0.0003814697265625,-0.001251220703125,-0.00054931640625,-2.0735371112823486,0.1061428040266037,0.04357537999749184
200,2024-10-03T09:08:56.366Z,-0.044164467602968216,0.1090683713555336,1.0189443826675415,-0.000213623046875,-0.0006256103515625,0.00006103515625,-2.0735371112823486,0.1061428040266037,0.04357537999749184
201,2024-10-03T09:08:56.394Z,-0.043431606143713,0.10979966819286346,1.0184558629989624,-0.000213623046875,-0.0006256103515625,0.00006103515625,-2.0735371112823486,0.1061428040266037,0.04357537999749184
202,2024-10-03T09:08:56.397Z,-0.043431606143713,0.10979966819286346,1.0184558629989624,-0.000213623046875,-0.000030517578125,-0.00054931640625,-2.0735371112823486,0.1061428040266037,0.04357537999749184
203,2024-10-03T09:08:56.409Z,-0.043431606143713,0.10979966819286346,1.0184558629989624,-0.000213623046875,-0.000030517578125,-0.00054931640625,-2.0735435485839844,0.10613253712654114,0.0435769148170948
204,2024-10-03T09:08:56.424Z,-0.04318732023239136,0.10735992342233658,1.0182116031646729,-0.000213623046875,-0.000030517578125,-0.00054931640625,-2.0735435485839844,0.10613253712654114,0.0435769148170948
205,2024-10-03T09:08:56.424Z,-0.04318732023239136,0.10735992342233658,1.0182116031646729,-0.0008392333984375,-0.000030517578125,0.00067138671875,-2.0735435485839844,0.10613253712654114,0.0435769148170948
206,2024-10-03T09:08:56.436Z,-0.04318732023239136,0.10735992342233658,1.0182116031646729,-0.0008392333984375,-0.000030517578125,0.00067138671875,-2.07332706451416,0.10610032081604004,0.04351736605167389
207,2024-10-03T09:08:56.450Z,-0.044164467602968216,0.10735992342233658,1.0191887617111206,-0.0008392333984375,-0.000030517578125,0.00067138671875,-2.07332706451416,0.10610032081604004,0.04351736605167389
208,2024-10-03T09:08:56.450Z,-0.044164467602968216,0.10735992342233658,1.0191887617111206,-0.0008392333984375,-0.000030517578125,-0.00054931640625,-2.07332706451416,0.10610032081604004,0.04351736605167389
209,2024-10-03T09:08:56.466Z,-0.044164467602968216,0.10735992342233658,1.0191887617111206,-0.0008392333984375,-0.000030517578125,-0.00054931640625,-2.073244094848633,0.10607720911502838,0.043513089418411255
210,2024-10-03T09:08:56.476Z,-0.044408753514289856,0.10955538600683212,1.0196757316589355,-0.0008392333984375,-0.000030517578125,-0.00054931640625,-2.073244094848633,0.10607720911502838,0.043513089418411255
211,2024-10-03T09:08:56.477Z,-0.044408753514289856,0.10955538600683212,1.0196757316589355,0.0003814697265625,0.0012054443359375,-0.00115966796875,-2.073244094848633,0.10607720911502838,0.043513089418411255
212,2024-10-03T09:08:56.502Z,-0.043920181691646576,0.11053252965211868,1.0206513404846191,0.0003814697265625,0.0012054443359375,-0.00115966796875,-2.073244094848633,0.10607720911502838,0.043513089418411255
213,2024-10-03T09:08:56.503Z,-0.043920181691646576,0.11053252965211868,1.0206513404846191,0.0003814697265625,0.0012054443359375,-0.00115966796875,-2.0729684829711914,0.1060871109366417,0.04356548562645912
214,2024-10-03T09:08:56.503Z,-0.043920181691646576,0.11053252965211868,1.0206513404846191,-0.0008392333984375,-0.0006256103515625,0.00006103515625,-2.0729684829711914,0.1060871109366417,0.04356548562645912
215,2024-10-03T09:08:56.653Z,-0.0456286258995533,0.10809122025966644,1.0182116031646729,-0.0008392333984375,-0.0006256103515625,0.00006103515625,-2.0729684829711914,0.1060871109366417,0.04356548562645912
216,2024-10-03T09:08:56.653Z,-0.0456286258995533,0.10809122025966644,1.0182116031646729,0.001007080078125,-0.0006256103515625,-0.00177001953125,-2.0729684829711914,0.1060871109366417,0.04356548562645912
217,2024-10-03T09:08:56.654Z,-0.0456286258995533,0.1110195443034172,1.0191887617111206,0.001007080078125,-0.0006256103515625,-0.00177001953125,-2.0729684829711914,0.1060871109366417,0.04356548562645912
218,2024-10-03T09:08:56.654Z,-0.0456286258995533,0.1110195443034172,1.0191887617111206,-0.000213623046875,-0.0006256103515625,0.00067138671875,-2.0729684829711914,0.1060871109366417,0.04356548562645912
219,2024-10-03T09:08:56.654Z,-0.042211733758449554,0.10857979953289032,1.0189443826675415,-0.000213623046875,-0.0006256103515625,0.00067138671875,-2.0729684829711914,0.1060871109366417,0.04356548562645912
220,2024-10-03T09:08:56.654Z,-0.042211733758449554,0.10857979953289032,1.0189443826675415,-0.0020599365234375,-0.000030517578125,0.00006103515625,-2.0729684829711914,0.1060871109366417,0.04356548562645912
221,2024-10-03T09:08:56.655Z,-0.04635993018746376,0.10784849524497986,1.0177245140075684,-0.0020599365234375,-0.000030517578125,0.00006103515625,-2.0729684829711914,0.1060871109366417,0.04356548562645912
222,2024-10-03T09:08:56.655Z,-0.04635993018746376,0.10784849524497986,1.0177245140075684,-0.0020599365234375,0.0005950927734375,-0.00177001953125,-2.0729684829711914,0.1060871109366417,0.04356548562645912
223,2024-10-03T09:08:56.656Z,-0.04318732023239136,0.10833550989627838,1.0206513404846191,-0.0020599365234375,0.0005950927734375,-0.00177001953125,-2.0729684829711914,0.1060871109366417,0.04356548562645912
224,2024-10-03T09:08:56.656Z,-0.04318732023239136,0.10833550989627838,1.0206513404846191,0.0003814697265625,-0.000030517578125,0.00067138671875,-2.0729684829711914,0.1060871109366417,0.04356548562645912
225,2024-10-03T09:08:56.656Z,-0.04318732023239136,0.10833550989627838,1.0206513404846191,0.0003814697265625,-0.000030517578125,0.00067138671875,-2.0726211071014404,0.10602512210607529,0.04350595921278
226,2024-10-03T09:08:56.656Z,-0.04318732023239136,0.10833550989627838,1.0206513404846191,0.0003814697265625,-0.000030517578125,0.00067138671875,-2.0726211071014404,0.10602512210607529,0.04350595921278
227,2024-10-03T09:08:56.656Z,-0.04318732023239136,0.10833550989627838,1.0206513404846191,0.0003814697265625,-0.000030517578125,0.00067138671875,-2.0726211071014404,0.10602512210607529,0.04350595921278
228,2024-10-03T09:08:56.656Z,-0.04318732023239136,0.10833550989627838,1.0206513404846191,0.0003814697265625,-0.000030517578125,0.00067138671875,-2.0726287364959717,0.10603556036949158,0.043509334325790405
229,2024-10-03T09:08:56.666Z,-0.04318732023239136,0.10833550989627838,1.0206513404846191,0.0003814697265625,-0.000030517578125,0.00067138671875,-2.072758674621582,0.10604710876941681,0.04350109025835991
230,2024-10-03T09:08:56.672Z,-0.04538433998823166,0.10955538600683212,1.018700122833252,0.0003814697265625,-0.000030517578125,0.00067138671875,-2.072758674621582,0.10604710876941681,0.04350109025835991
231,2024-10-03T09:08:56.673Z,-0.04538433998823166,0.10955538600683212,1.018700122833252,-0.0020599365234375,-0.0006256103515625,0.00006103515625,-2.072758674621582,0.10604710876941681,0.04350109025835991
232,2024-10-03T09:08:56.699Z,-0.04538433998823166,0.10955538600683212,1.018700122833252,-0.0020599365234375,-0.0006256103515625,0.00006103515625,-2.072794198989868,0.10607924312353134,0.04349463805556297
233,2024-10-03T09:08:56.702Z,-0.04635993018746376,0.10662861913442612,1.0223597288131714,-0.0020599365234375,-0.0006256103515625,0.00006103515625,-2.072794198989868,0.10607924312353134,0.04349463805556297
234,2024-10-03T09:08:56.702Z,-0.04635993018746376,0.10662861913442612,1.0223597288131714,0.001007080078125,0.0012054443359375,0.00006103515625,-2.072794198989868,0.10607924312353134,0.04349463805556297
235,2024-10-03T09:08:56.731Z,-0.04635993018746376,0.10662861913442612,1.0223597288131714,0.001007080078125,0.0012054443359375,0.00006103515625,-2.0728368759155273,0.1060522124171257,0.04351272061467171
236,2024-10-03T09:08:56.733Z,-0.04538433998823166,0.11077526211738586,1.0189443826675415,0.001007080078125,0.0012054443359375,0.00006103515625,-2.0728368759155273,0.1060522124171257,0.04351272061467171
237,2024-10-03T09:08:56.733Z,-0.04538433998823166,0.11077526211738586,1.0189443826675415,0.001617431640625,-0.0006256103515625,0.00006103515625,-2.0728368759155273,0.1060522124171257,0.04351272061467171
238,2024-10-03T09:08:56.760Z,-0.04587135836482048,0.10882408171892166,1.019431471824646,0.001617431640625,-0.0006256103515625,0.00006103515625,-2.0728368759155273,0.1060522124171257,0.04351272061467171
239,2024-10-03T09:08:56.760Z,-0.04587135836482048,0.10882408171892166,1.019431471824646,-0.0008392333984375,-0.000030517578125,0.00128173828125,-2.0728368759155273,0.1060522124171257,0.04351272061467171
240,2024-10-03T09:08:56.766Z,-0.04587135836482048,0.10882408171892166,1.019431471824646,-0.0008392333984375,-0.000030517578125,0.00128173828125,-2.071695566177368,0.10613630712032318,0.04354477301239967
241,2024-10-03T09:08:56.787Z,-0.04587135836482048,0.10882408171892166,1.019431471824646,-0.0020599365234375,-0.000030517578125,0.00006103515625,-2.071695566177368,0.10613630712032318,0.04354477301239967
242,2024-10-03T09:08:56.790Z,-0.042700305581092834,0.10955538600683212,1.0172359943389893,-0.0020599365234375,-0.000030517578125,0.00006103515625,-2.071695566177368,0.10613630712032318,0.04354477301239967
243,2024-10-03T09:08:56.811Z,-0.042700305581092834,0.10955538600683212,1.0172359943389893,-0.0020599365234375,-0.000030517578125,0.00006103515625,-2.0711350440979004,0.10612689703702927,0.04353594034910202
244,2024-10-03T09:08:56.814Z,-0.042700305581092834,0.10955538600683212,1.0172359943389893,-0.0008392333984375,-0.0006256103515625,-0.00115966796875,-2.0711350440979004,0.10612689703702927,0.04353594034910202
245,2024-10-03T09:08:56.820Z,-0.042700305581092834,0.1100439578294754,1.0169917345046997,-0.0008392333984375,-0.0006256103515625,-0.00115966796875,-2.0711350440979004,0.10612689703702927,0.04353594034910202
246,2024-10-03T09:08:56.836Z,-0.042700305581092834,0.1100439578294754,1.0169917345046997,-0.0008392333984375,-0.0006256103515625,-0.00115966796875,-2.0706496238708496,0.10605873912572861,0.04349512234330177
247,2024-10-03T09:08:56.840Z,-0.042700305581092834,0.1100439578294754,1.0169917345046997,-0.001434326171875,0.0024261474609375,-0.00054931640625,-2.0706496238708496,0.10605873912572861,0.04349512234330177
248,2024-10-03T09:08:56.847Z,-0.04318732023239136,0.1110195443034172,1.0196757316589355,-0.001434326171875,0.0024261474609375,-0.00054931640625,-2.0706496238708496,0.10605873912572861,0.04349512234330177
249,2024-10-03T09:08:56.866Z,-0.04318732023239136,0.1110195443034172,1.0196757316589355,-0.001434326171875,0.0024261474609375,-0.00054931640625,-2.0701026916503906,0.10608676820993423,0.04353976249694824
250,2024-10-03T09:08:56.867Z,-0.04318732023239136,0.1110195443034172,1.0196757316589355,-0.001434326171875,0.0005950927734375,0.00128173828125,-2.0701026916503906,0.10608676820993423,0.04353976249694824
251,2024-10-03T09:08:56.873Z,-0.044164467602968216,0.10857979953289032,1.0162603855133057,-0.001434326171875,0.0005950927734375,0.00128173828125,-2.0701026916503906,0.10608676820993423,0.04353976249694824
252,2024-10-03T09:08:56.894Z,-0.044164467602968216,0.10857979953289032,1.0162603855133057,0.001007080078125,0.0005950927734375,0.00006103515625,-2.0701026916503906,0.10608676820993423,0.04353976249694824
253,2024-10-03T09:08:56.904Z,-0.044164467602968216,0.10857979953289032,1.0162603855133057,0.001007080078125,0.0005950927734375,0.00006103515625,-2.070124387741089,0.1061054989695549,0.043563585728406906
254,2024-10-03T09:08:56.909Z,-0.04635993018746376,0.11199669539928436,1.0189443826675415,0.001007080078125,0.0005950927734375,0.00006103515625,-2.070124387741089,0.1061054989695549,0.043563585728406906
255,2024-10-03T09:08:56.922Z,-0.04635993018746376,0.11199669539928436,1.0189443826675415,-0.0008392333984375,-0.0006256103515625,0.00006103515625,-2.070124387741089,0.1061054989695549,0.043563585728406906
256,2024-10-03T09:08:56.936Z,-0.04489576816558838,0.1110195443034172,1.0177245140075684,-0.0008392333984375,-0.0006256103515625,0.00006103515625,-2.070124387741089,0.1061054989695549,0.043563585728406906
257,2024-10-03T09:08:56.937Z,-0.04489576816558838,0.1110195443034172,1.0177245140075684,-0.0008392333984375,-0.0006256103515625,0.00006103515625,-2.068763256072998,0.10613977164030075,0.0435648113489151
258,2024-10-03T09:08:56.949Z,-0.04489576816558838,0.1110195443034172,1.0177245140075684,0.0003814697265625,0.0005950927734375,0.00067138671875,-2.068763256072998,0.10613977164030075,0.0435648113489151
259,2024-10-03T09:08:56.963Z,-0.042944591492414474,0.10979966819286346,1.0201643705368042,0.0003814697265625,0.0005950927734375,0.00067138671875,-2.068763256072998,0.10613977164030075,0.0435648113489151
260,2024-10-03T09:08:56.966Z,-0.042944591492414474,0.10979966819286346,1.0201643705368042,0.0003814697265625,0.0005950927734375,0.00067138671875,-2.067683696746826,0.10614073276519775,0.04357688128948212
261,2024-10-03T09:08:56.975Z,-0.042944591492414474,0.10979966819286346,1.0201643705368042,0.0003814697265625,-0.000030517578125,0.00006103515625,-2.067683696746826,0.10614073276519775,0.04357688128948212
262,2024-10-03T09:08:56.989Z,-0.043920181691646576,0.10882408171892166,1.0208956003189087,0.0003814697265625,-0.000030517578125,0.00006103515625,-2.067683696746826,0.10614073276519775,0.04357688128948212
263,2024-10-03T09:08:56.999Z,-0.043920181691646576,0.10882408171892166,1.0208956003189087,0.0003814697265625,-0.000030517578125,0.00006103515625,-2.067150831222534,0.10614020377397537,0.04356472194194794
264,2024-10-03T09:08:57.002Z,-0.043920181691646576,0.10882408171892166,1.0208956003189087,-0.0008392333984375,-0.0006256103515625,0.00067138671875,-2.067150831222534,0.10614020377397537,0.04356472194194794
265,2024-10-03T09:08:57.018Z,-0.04514005407691002,0.10833550989627838,1.019431471824646,-0.0008392333984375,-0.0006256103515625,0.00067138671875,-2.067150831222534,0.10614020377397537,0.04356472194194794
266,2024-10-03T09:08:57.036Z,-0.04514005407691002,0.10833550989627838,1.019431471824646,-0.0008392333984375,-0.0006256103515625,0.00067138671875,-2.0664150714874268,0.10612642019987106,0.04354626685380936
267,2024-10-03T09:08:57.037Z,-0.04514005407691002,0.10833550989627838,1.019431471824646,-0.000213623046875,-0.0006256103515625,-0.00054931640625,-2.0664150714874268,0.10612642019987106,0.04354626685380936
268,2024-10-03T09:08:57.046Z,-0.043431606143713,0.10784849524497986,1.019919991493225,-0.000213623046875,-0.0006256103515625,-0.00054931640625,-2.0664150714874268,0.10612642019987106,0.04354626685380936
269,2024-10-03T09:08:57.062Z,-0.043431606143713,0.10784849524497986,1.019919991493225,-0.0008392333984375,-0.0006256103515625,-0.00054931640625,-2.0664150714874268,0.10612642019987106,0.04354626685380936
270,2024-10-03T09:08:57.077Z,-0.043431606143713,0.10784849524497986,1.019919991493225,-0.0008392333984375,-0.0006256103515625,-0.00054931640625,-2.065842866897583,0.1060759574174881,0.04354066774249077
271,2024-10-03T09:08:57.081Z,-0.04538433998823166,0.11028824746608734,1.0174802541732788,-0.0008392333984375,-0.0006256103515625,-0.00054931640625,-2.065842866897583,0.1060759574174881,0.04354066774249077
272,2024-10-03T09:08:57.091Z,-0.04538433998823166,0.11028824746608734,1.0174802541732788,-0.0008392333984375,0.0005950927734375,-0.00054931640625,-2.065842866897583,0.1060759574174881,0.04354066774249077
273,2024-10-03T09:08:57.108Z,-0.04489576816558838,0.10809122025966644,1.0182116031646729,-0.0008392333984375,0.0005950927734375,-0.00054931640625,-2.065842866897583,0.1060759574174881,0.04354066774249077
274,2024-10-03T09:08:57.109Z,-0.04489576816558838,0.10809122025966644,1.0182116031646729,-0.0008392333984375,0.0005950927734375,-0.00054931640625,-2.065643787384033,0.10607118159532547,0.04351695626974106
275,2024-10-03T09:08:57.121Z,-0.04489576816558838,0.10809122025966644,1.0182116031646729,-0.000213623046875,-0.001251220703125,0.00006103515625,-2.065643787384033,0.10607118159532547,0.04351695626974106
276,2024-10-03T09:08:57.135Z,-0.04489576816558838,0.10809122025966644,1.0182116031646729,-0.000213623046875,-0.001251220703125,0.00006103515625,-2.0656299591064453,0.10604584962129593,0.04352092370390892
277,2024-10-03T09:08:57.137Z,-0.04635993018746376,0.11077526211738586,1.019431471824646,-0.000213623046875,-0.001251220703125,0.00006103515625,-2.0656299591064453,0.10604584962129593,0.04352092370390892
278,2024-10-03T09:08:57.149Z,-0.04635993018746376,0.11077526211738586,1.019431471824646,-0.006317138671875,-0.001251220703125,0.00311279296875,-2.0656299591064453,0.10604584962129593,0.04352092370390892
279,2024-10-03T09:08:57.163Z,-0.042456019669771194,0.1058957576751709,1.0230926275253296,-0.006317138671875,-0.001251220703125,0.00311279296875,-2.0656299591064453,0.10604584962129593,0.04352092370390892
280,2024-10-03T09:08:57.170Z,-0.042456019669771194,0.1058957576751709,1.0230926275253296,-0.006317138671875,-0.001251220703125,0.00311279296875,-2.065620183944702,0.10606272518634796,0.043475229293107986
281,2024-10-03T09:08:57.177Z,-0.042456019669771194,0.1058957576751709,1.0230926275253296,0.003448486328125,0.0012054443359375,-0.00115966796875,-2.065620183944702,0.10606272518634796,0.043475229293107986
282,2024-10-03T09:08:57.191Z,-0.04514005407691002,0.10150327533483505,1.008695363998413,0.003448486328125,0.0012054443359375,-0.00115966796875,-2.065620183944702,0.10606272518634796,0.043475229293107986
283,2024-10-03T09:08:57.204Z,-0.04514005407691002,0.10150327533483505,1.008695363998413,0.009552001953125,0.0030364990234375,-0.00482177734375,-2.065620183944702,0.10606272518634796,0.043475229293107986
284,2024-10-03T09:08:57.205Z,-0.04514005407691002,0.10150327533483505,1.008695363998413,0.009552001953125,0.0030364990234375,-0.00482177734375,-2.0655508041381836,0.10591737180948257,0.04352149739861488
285,2024-10-03T09:08:57.221Z,-0.042456019669771194,0.11028824746608734,1.0213842391967773,0.009552001953125,0.0030364990234375,-0.00482177734375,-2.0655508041381836,0.10591737180948257,0.04352149739861488
286,2024-10-03T09:08:57.230Z,-0.042456019669771194,0.11028824746608734,1.0213842391967773,-0.0008392333984375,0.0012054443359375,-0.00054931640625,-2.0655508041381836,0.10591737180948257,0.04352149739861488
287,2024-10-03T09:08:57.240Z,-0.042456019669771194,0.11028824746608734,1.0213842391967773,-0.0008392333984375,0.0012054443359375,-0.00054931640625,-2.0656139850616455,0.10602885484695435,0.043508563190698624
288,2024-10-03T09:08:57.247Z,-0.04172471538186073,0.1058957576751709,1.0226041078567505,-0.0008392333984375,0.0012054443359375,-0.00054931640625,-2.0656139850616455,0.10602885484695435,0.043508563190698624
289,2024-10-03T09:08:57.256Z,-0.04172471538186073,0.1058957576751709,1.0226041078567505,-0.008148193359375,-0.001251220703125,0.00006103515625,-2.0656139850616455,0.10602885484695435,0.043508563190698624
290,2024-10-03T09:08:57.268Z,-0.04172471538186073,0.1058957576751709,1.0226041078567505,-0.008148193359375,-0.001251220703125,0.00006103515625,-2.065474510192871,0.10583248734474182,0.0434664823114872
291,2024-10-03T09:08:57.275Z,-0.04611564427614212,0.10760420560836792,1.0213842391967773,-0.008148193359375,-0.001251220703125,0.00006103515625,-2.065474510192871,0.10583248734474182,0.0434664823114872
292,2024-10-03T09:08:57.281Z,-0.04611564427614212,0.10760420560836792,1.0213842391967773,-0.001434326171875,-0.0006256103515625,0.00250244140625,-2.065474510192871,0.10583248734474182,0.0434664823114872
293,2024-10-03T09:08:57.304Z,-0.04611564427614212,0.11077526211738586,1.0218727588653564,-0.001434326171875,-0.0006256103515625,0.00250244140625,-2.065474510192871,0.10583248734474182,0.0434664823114872
294,2024-10-03T09:08:57.305Z,-0.04611564427614212,0.11077526211738586,1.0218727588653564,-0.001434326171875,-0.0006256103515625,0.00250244140625,-2.06544828414917,0.1057756319642067,0.04348686337471008
295,2024-10-03T09:08:57.307Z,-0.04611564427614212,0.11077526211738586,1.0218727588653564,-0.003875732421875,-0.0006256103515625,-0.00115966796875,-2.06544828414917,0.1057756319642067,0.04348686337471008
296,2024-10-03T09:08:57.328Z,-0.043920181691646576,0.10662861913442612,1.0111366510391235,-0.003875732421875,-0.0006256103515625,-0.00115966796875,-2.06544828414917,0.1057756319642067,0.04348686337471008
297,2024-10-03T09:08:57.333Z,-0.043920181691646576,0.10662861913442612,1.0111366510391235,-0.003875732421875,-0.0006256103515625,-0.00115966796875,-2.0653858184814453,0.1057143583893776,0.04343043267726898
298,2024-10-03T09:08:57.337Z,-0.043920181691646576,0.10662861913442612,1.0111366510391235,0.002838134765625,0.0012054443359375,0.00128173828125,-2.0653858184814453,0.1057143583893776,0.04343043267726898
299,2024-10-03T09:08:57.355Z,-0.04611564427614212,0.10345600545406342,1.0235795974731445,0.002838134765625,0.0012054443359375,0.00128173828125,-2.0653858184814453,0.1057143583893776,0.04343043267726898
300,2024-10-03T09:08:57.361Z,-0.04611564427614212,0.10345600545406342,1.0235795974731445,-0.002655029296875,-0.001251220703125,0.00128173828125,-2.0653858184814453,0.1057143583893776,0.04343043267726898
301,2024-10-03T09:08:57.367Z,-0.04611564427614212,0.10345600545406342,1.0235795974731445,-0.002655029296875,-0.001251220703125,0.00128173828125,-2.0653886795043945,0.10566386580467224,0.04350769892334938
302,2024-10-03T09:08:57.382Z,-0.042944591492414474,0.11199669539928436,1.0172359943389893,-0.002655029296875,-0.001251220703125,0.00128173828125,-2.0653886795043945,0.10566386580467224,0.04350769892334938
303,2024-10-03T09:08:57.388Z,-0.042944591492414474,0.11199669539928436,1.0172359943389893,-0.003875732421875,-0.001251220703125,0.00067138671875,-2.0653886795043945,0.10566386580467224,0.04350769892334938
304,2024-10-03T09:08:57.400Z,-0.042944591492414474,0.11199669539928436,1.0172359943389893,-0.003875732421875,-0.001251220703125,0.00067138671875,-2.0654447078704834,0.10581186413764954,0.043427009135484695
305,2024-10-03T09:08:57.408Z,-0.04318732023239136,0.10126054286956787,1.019431471824646,-0.003875732421875,-0.001251220703125,0.00067138671875,-2.0654447078704834,0.10581186413764954,0.043427009135484695
306,2024-10-03T09:08:57.416Z,-0.04318732023239136,0.10126054286956787,1.019431471824646,0.002838134765625,-0.0018463134765625,0.00189208984375,-2.0654447078704834,0.10581186413764954,0.043427009135484695
307,2024-10-03T09:08:57.438Z,-0.04318732023239136,0.10126054286956787,1.019431471824646,0.002838134765625,-0.0018463134765625,0.00189208984375,-2.0653133392333984,0.10562954097986221,0.043383870273828506
308,2024-10-03T09:08:57.440Z,-0.04538433998823166,0.10662861913442612,1.0206513404846191,0.002838134765625,-0.0018463134765625,0.00189208984375,-2.0653133392333984,0.10562954097986221,0.043383870273828506
309,2024-10-03T09:08:57.443Z,-0.04538433998823166,0.10662861913442612,1.0206513404846191,-0.0045013427734375,-0.000030517578125,0.00006103515625,-2.0653133392333984,0.10562954097986221,0.043383870273828506
310,2024-10-03T09:08:57.468Z,-0.04001626744866371,0.11736476421356201,1.0218727588653564,-0.0045013427734375,-0.000030517578125,0.00006103515625,-2.0653133392333984,0.10562954097986221,0.043383870273828506
311,2024-10-03T09:08:57.469Z,-0.04001626744866371,0.11736476421356201,1.0218727588653564,-0.0045013427734375,-0.000030517578125,0.00006103515625,-2.0655038356781006,0.10587871074676514,0.043468207120895386
312,2024-10-03T09:08:57.474Z,-0.04001626744866371,0.11736476421356201,1.0218727588653564,0.004058837890625,0.0018157958984375,0.00006103515625,-2.0655038356781006,0.10587871074676514,0.043468207120895386
313,2024-10-03T09:08:57.495Z,-0.0485553964972496,0.10126054286956787,1.0174802541732788,0.004058837890625,0.0018157958984375,0.00006103515625,-2.0655038356781006,0.10587871074676514,0.043468207120895386
314,2024-10-03T09:08:57.501Z,-0.0485553964972496,0.10126054286956787,1.0174802541732788,0.004058837890625,0.0018157958984375,0.00006103515625,-2.065340995788574,0.10565892606973648,0.043405503034591675
315,2024-10-03T09:08:57.504Z,-0.0485553964972496,0.10126054286956787,1.0174802541732788,-0.0020599365234375,-0.001251220703125,-0.00054931640625,-2.065340995788574,0.10565892606973648,0.043405503034591675
316,2024-10-03T09:08:57.593Z,-0.043920181691646576,0.1110195443034172,1.0208956003189087,-0.0020599365234375,-0.001251220703125,-0.00054931640625,-2.065340995788574,0.10565892606973648,0.043405503034591675
317,2024-10-03T09:08:57.593Z,-0.043920181691646576,0.1110195443034172,1.0208956003189087,0.001007080078125,-0.001251220703125,0.00067138671875,-2.065340995788574,0.10565892606973648,0.043405503034591675
318,2024-10-03T09:08:57.595Z,-0.04489576816558838,0.10931265354156494,1.0201643705368042,0.001007080078125,-0.001251220703125,0.00067138671875,-2.065340995788574,0.10565892606973648,0.043405503034591675
319,2024-10-03T09:08:57.595Z,-0.04489576816558838,0.10931265354156494,1.0201643705368042,-0.002655029296875,-0.000030517578125,0.00006103515625,-2.065340995788574,0.10565892606973648,0.043405503034591675
320,2024-10-03T09:08:57.595Z,-0.04514005407691002,0.09881924092769623,1.0223597288131714,-0.002655029296875,-0.000030517578125,0.00006103515625,-2.065340995788574,0.10565892606973648,0.043405503034591675
321,2024-10-03T09:08:57.596Z,-0.04514005407691002,0.09881924092769623,1.0223597288131714,0.001617431640625,-0.0006256103515625,0.00006103515625,-2.065340995788574,0.10565892606973648,0.043405503034591675
322,2024-10-03T09:08:57.596Z,-0.04514005407691002,0.09881924092769623,1.0223597288131714,0.001617431640625,-0.0006256103515625,0.00006103515625,-2.065281629562378,0.10552908480167389,0.043453648686409
323,2024-10-03T09:08:57.596Z,-0.04514005407691002,0.09881924092769623,1.0223597288131714,0.001617431640625,-0.0006256103515625,0.00006103515625,-2.065281629562378,0.10552908480167389,0.043453648686409
324,2024-10-03T09:08:57.601Z,-0.04514005407691002,0.09881924092769623,1.0223597288131714,0.001617431640625,-0.0006256103515625,0.00006103515625,-2.0652942657470703,0.10553987324237823,0.043466754257678986
325,2024-10-03T09:08:57.606Z,-0.04831266403198242,0.1110195443034172,1.0165046453475952,0.001617431640625,-0.0006256103515625,0.00006103515625,-2.0652942657470703,0.10553987324237823,0.043466754257678986
326,2024-10-03T09:08:57.610Z,-0.04831266403198242,0.1110195443034172,1.0165046453475952,0.002227783203125,-0.0006256103515625,0.00006103515625,-2.0652942657470703,0.10553987324237823,0.043466754257678986
327,2024-10-03T09:08:57.634Z,-0.04074757173657417,0.10931265354156494,1.0167474746704102,0.002227783203125,-0.0006256103515625,0.00006103515625,-2.0652942657470703,0.10553987324237823,0.043466754257678986
328,2024-10-03T09:08:57.634Z,-0.04074757173657417,0.10931265354156494,1.0167474746704102,0.002227783203125,-0.0006256103515625,0.00006103515625,-2.0654823780059814,0.1058143600821495,0.043510325253009796
329,2024-10-03T09:08:57.638Z,-0.04074757173657417,0.10931265354156494,1.0167474746704102,-0.000213623046875,-0.0006256103515625,-0.00054931640625,-2.0654823780059814,0.1058143600821495,0.043510325253009796
330,2024-10-03T09:08:57.660Z,-0.04709123447537422,0.10735992342233658,1.019431471824646,-0.000213623046875,-0.0006256103515625,-0.00054931640625,-2.0654823780059814,0.1058143600821495,0.043510325253009796
331,2024-10-03T09:08:57.665Z,-0.04709123447537422,0.10735992342233658,1.019431471824646,-0.002655029296875,-0.0018463134765625,0.00067138671875,-2.0654823780059814,0.1058143600821495,0.043510325253009796
332,2024-10-03T09:08:57.667Z,-0.04709123447537422,0.10735992342233658,1.019431471824646,-0.002655029296875,-0.0018463134765625,0.00067138671875,-2.065368175506592,0.10566672682762146,0.043457068502902985
333,2024-10-03T09:08:57.688Z,-0.04172471538186073,0.11150811612606049,1.015284776687622,-0.002655029296875,-0.0018463134765625,0.00067138671875,-2.065368175506592,0.10566672682762146,0.043457068502902985
334,2024-10-03T09:08:57.692Z,-0.04172471538186073,0.11150811612606049,1.015284776687622,-0.000213623046875,-0.000030517578125,0.00067138671875,-2.065368175506592,0.10566672682762146,0.043457068502902985
335,2024-10-03T09:08:57.704Z,-0.04172471538186073,0.11150811612606049,1.015284776687622,-0.000213623046875,-0.000030517578125,0.00067138671875,-2.065446615219116,0.10577648133039474,0.04348171129822731
336,2024-10-03T09:08:57.714Z,-0.04074757173657417,0.1100439578294754,1.023335337638855,-0.000213623046875,-0.000030517578125,0.00067138671875,-2.065446615219116,0.10577648133039474,0.04348171129822731
337,2024-10-03T09:08:57.719Z,-0.04074757173657417,0.1100439578294754,1.023335337638855,-0.0032806396484375,0.0005950927734375,0.00006103515625,-2.065446615219116,0.10577648133039474,0.04348171129822731
338,2024-10-03T09:08:57.737Z,-0.04074757173657417,0.1100439578294754,1.023335337638855,-0.0032806396484375,0.0005950927734375,0.00006103515625,-2.0654780864715576,0.10584400594234467,0.04345858469605446
339,2024-10-03T09:08:57.743Z,-0.0466042160987854,0.10662861913442612,1.0179673433303833,-0.0032806396484375,0.0005950927734375,0.00006103515625,-2.0654780864715576,0.10584400594234467,0.04345858469605446
340,2024-10-03T09:08:57.745Z,-0.0466042160987854,0.10662861913442612,1.0179673433303833,0.001007080078125,0.0005950927734375,0.00128173828125,-2.0654780864715576,0.10584400594234467,0.04345858469605446
341,2024-10-03T09:08:57.770Z,-0.04026055335998535,0.10784849524497986,1.021628499031067,0.001007080078125,0.0005950927734375,0.00128173828125,-2.0654780864715576,0.10584400594234467,0.04345858469605446
342,2024-10-03T09:08:57.771Z,-0.04026055335998535,0.10784849524497986,1.021628499031067,0.001007080078125,0.0005950927734375,0.00128173828125,-2.065427541732788,0.10574081540107727,0.04348815232515335
343,2024-10-03T09:08:57.775Z,-0.04026055335998535,0.10784849524497986,1.021628499031067,0.001617431640625,0.0005950927734375,-0.00054931640625,-2.065427541732788,0.10574081540107727,0.04348815232515335
344,2024-10-03T09:08:57.798Z,-0.044164467602968216,0.10882408171892166,1.0189443826675415,0.001617431640625,0.0005950927734375,-0.00054931640625,-2.065427541732788,0.10574081540107727,0.04348815232515335
345,2024-10-03T09:08:57.807Z,-0.044164467602968216,0.10882408171892166,1.0189443826675415,-0.0008392333984375,0.0005950927734375,0.00006103515625,-2.065427541732788,0.10574081540107727,0.04348815232515335
346,2024-10-03T09:08:57.808Z,-0.044164467602968216,0.10882408171892166,1.0189443826675415,-0.0008392333984375,0.0005950927734375,0.00006103515625,-2.0654256343841553,0.10575718432664871,0.04346062242984772
347,2024-10-03T09:08:57.826Z,-0.04587135836482048,0.10443159937858582,1.0201643705368042,-0.0008392333984375,0.0005950927734375,0.00006103515625,-2.0654256343841553,0.10575718432664871,0.04346062242984772
348,2024-10-03T09:08:57.831Z,-0.04587135836482048,0.10443159937858582,1.0201643705368042,-0.000213623046875,-0.0006256103515625,0.00006103515625,-2.0654256343841553,0.10575718432664871,0.04346062242984772
349,2024-10-03T09:08:57.839Z,-0.04587135836482048,0.10443159937858582,1.0201643705368042,-0.000213623046875,-0.0006256103515625,0.00006103515625,-2.0653913021087646,0.10569949448108673,0.04346379637718201
350,2024-10-03T09:08:57.855Z,-0.043920181691646576,0.10833550989627838,1.0182116031646729,-0.000213623046875,-0.0006256103515625,0.00006103515625,-2.0653913021087646,0.10569949448108673,0.04346379637718201
351,2024-10-03T09:08:57.863Z,-0.043920181691646576,0.10833550989627838,1.0182116031646729,-0.001434326171875,0.0012054443359375,-0.00054931640625,-2.0653913021087646,0.10569949448108673,0.04346379637718201
352,2024-10-03T09:08:57.877Z,-0.043920181691646576,0.10833550989627838,1.0182116031646729,-0.001434326171875,0.0012054443359375,-0.00054931640625,-2.0654170513153076,0.10573235154151917,0.043476078659296036
353,2024-10-03T09:08:57.881Z,-0.04538433998823166,0.10809122025966644,1.0204086303710938,-0.001434326171875,0.0012054443359375,-0.00054931640625,-2.0654170513153076,0.10573235154151917,0.043476078659296036
354,2024-10-03T09:08:57.890Z,-0.04538433998823166,0.10809122025966644,1.0204086303710938,-0.0020599365234375,-0.0006256103515625,0.00006103515625,-2.0654170513153076,0.10573235154151917,0.043476078659296036
355,2024-10-03T09:08:57.905Z,-0.04538433998823166,0.10809122025966644,1.0204086303710938,-0.0020599365234375,-0.0006256103515625,0.00006103515625,-2.06538724899292,0.10570312291383743,0.04344933107495308
356,2024-10-03T09:08:57.908Z,-0.04611564427614212,0.10809122025966644,1.019431471824646,-0.0020599365234375,-0.0006256103515625,0.00006103515625,-2.06538724899292,0.10570312291383743,0.04344933107495308
357,2024-10-03T09:08:57.928Z,-0.04611564427614212,0.10809122025966644,1.019431471824646,-0.0008392333984375,-0.0006256103515625,-0.00054931640625,-2.06538724899292,0.10570312291383743,0.04344933107495308
358,2024-10-03T09:08:57.934Z,-0.04538433998823166,0.1110195443034172,1.0182116031646729,-0.0008392333984375,-0.0006256103515625,-0.00054931640625,-2.06538724899292,0.10570312291383743,0.04344933107495308
359,2024-10-03T09:08:57.944Z,-0.04538433998823166,0.1110195443034172,1.0182116031646729,-0.0008392333984375,-0.0006256103515625,-0.00054931640625,-2.0653862953186035,0.1056804358959198,0.043479062616825104
360,2024-10-03T09:08:57.956Z,-0.04538433998823166,0.1110195443034172,1.0182116031646729,-0.001434326171875,-0.000030517578125,0.00006103515625,-2.0653862953186035,0.1056804358959198,0.043479062616825104
361,2024-10-03T09:08:57.962Z,-0.0456286258995533,0.10809122025966644,1.0189443826675415,-0.001434326171875,-0.000030517578125,0.00006103515625,-2.0653862953186035,0.1056804358959198,0.043479062616825104
362,2024-10-03T09:08:57.973Z,-0.0456286258995533,0.10809122025966644,1.0189443826675415,-0.001434326171875,-0.000030517578125,0.00006103515625,-2.0653884410858154,0.10568737238645554,0.04347459599375725
363,2024-10-03T09:08:57.980Z,-0.0456286258995533,0.10809122025966644,1.0189443826675415,-0.000213623046875,0.0005950927734375,-0.00115966796875,-2.0653884410858154,0.10568737238645554,0.04347459599375725
364,2024-10-03T09:08:57.991Z,-0.04367589205503464,0.1090683713555336,1.0174802541732788,-0.000213623046875,0.0005950927734375,-0.00115966796875,-2.0653884410858154,0.10568737238645554,0.04347459599375725
365,2024-10-03T09:08:58.003Z,-0.04367589205503464,0.1090683713555336,1.0174802541732788,-0.000213623046875,0.0005950927734375,-0.00115966796875,-2.065403699874878,0.10569939017295837,0.04349218308925629
366,2024-10-03T09:08:58.008Z,-0.04367589205503464,0.1090683713555336,1.0174802541732788,0.0003814697265625,-0.0006256103515625,-0.00054931640625,-2.065403699874878,0.10569939017295837,0.04349218308925629
367,2024-10-03T09:08:58.017Z,-0.04026055335998535,0.10882408171892166,1.0177245140075684,0.0003814697265625,-0.0006256103515625,-0.00054931640625,-2.065403699874878,0.10569939017295837,0.04349218308925629
368,2024-10-03T09:08:58.035Z,-0.04026055335998535,0.10882408171892166,1.0177245140075684,-0.0008392333984375,0.0005950927734375,-0.00054931640625,-2.065403699874878,0.10569939017295837,0.04349218308925629
369,2024-10-03T09:08:58.042Z,-0.04026055335998535,0.10882408171892166,1.0177245140075684,-0.0008392333984375,0.0005950927734375,-0.00054931640625,-2.065401554107666,0.10573413968086243,0.0434381477534771
370,2024-10-03T09:08:58.042Z,-0.042456019669771194,0.11272799223661423,1.019431471824646,-0.0008392333984375,0.0005950927734375,-0.00054931640625,-2.065401554107666,0.10573413968086243,0.0434381477534771
371,2024-10-03T09:08:58.062Z,-0.042456019669771194,0.11272799223661423,1.019431471824646,0.001007080078125,0.0005950927734375,0.00006103515625,-2.065401554107666,0.10573413968086243,0.0434381477534771
372,2024-10-03T09:08:58.151Z,-0.04514005407691002,0.10784849524497986,1.0204086303710938,0.001007080078125,0.0005950927734375,0.00006103515625,-2.065401554107666,0.10573413968086243,0.0434381477534771
373,2024-10-03T09:08:58.160Z,-0.04514005407691002,0.10784849524497986,1.0204086303710938,-0.000213623046875,0.0005950927734375,-0.00054931640625,-2.065401554107666,0.10573413968086243,0.0434381477534771
374,2024-10-03T09:08:58.160Z,-0.04514005407691002,0.10784849524497986,1.0204086303710938,-0.000213623046875,0.0005950927734375,-0.00054931640625,-2.0653626918792725,0.10562258213758469,0.043506473302841187
375,2024-10-03T09:08:58.176Z,-0.04489576816558838,0.11053252965211868,1.0201643705368042,-0.000213623046875,0.0005950927734375,-0.00054931640625,-2.0653626918792725,0.10562258213758469,0.043506473302841187
376,2024-10-03T09:08:58.180Z,-0.04489576816558838,0.11053252965211868,1.0201643705368042,-0.001434326171875,0.0005950927734375,0.00067138671875,-2.0653626918792725,0.10562258213758469,0.043506473302841187
377,2024-10-03T09:08:58.189Z,-0.04489576816558838,0.11053252965211868,1.0201643705368042,-0.001434326171875,0.0005950927734375,0.00067138671875,-2.0653798580169678,0.10566450655460358,0.04348669573664665
378,2024-10-03T09:08:58.205Z,-0.043920181691646576,0.10809122025966644,1.0179673433303833,-0.001434326171875,0.0005950927734375,0.00067138671875,-2.0653798580169678,0.10566450655460358,0.04348669573664665
379,2024-10-03T09:08:58.207Z,-0.043920181691646576,0.10809122025966644,1.0179673433303833,-0.0020599365234375,-0.000030517578125,0.00128173828125,-2.0653798580169678,0.10566450655460358,0.04348669573664665
380,2024-10-03T09:08:58.220Z,-0.043920181691646576,0.10809122025966644,1.0179673433303833,-0.0020599365234375,-0.000030517578125,0.00128173828125,-2.0653762817382812,0.10562527924776077,0.04353427141904831
381,2024-10-03T09:08:58.231Z,-0.044164467602968216,0.10979966819286346,1.019431471824646,-0.0020599365234375,-0.000030517578125,0.00128173828125,-2.0653762817382812,0.10562527924776077,0.04353427141904831
382,2024-10-03T09:08:58.242Z,-0.044164467602968216,0.10979966819286346,1.019431471824646,-0.0024261474609375,-0.001251220703125,0.000091552734375,-2.0653762817382812,0.10562527924776077,0.04353427141904831
383,2024-10-03T09:08:58.259Z,-0.042456019669771194,0.10443159937858582,1.0191887617111206,-0.0024261474609375,-0.001251220703125,0.000091552734375,-2.0653762817382812,0.10562527924776077,0.04353427141904831
384,2024-10-03T09:08:58.259Z,-0.042456019669771194,0.10443159937858582,1.0191887617111206,-0.0024261474609375,-0.001251220703125,0.000091552734375,-2.0653326511383057,0.10559004545211792,0.043484002351760864
385,2024-10-03T09:08:58.267Z,-0.042456019669771194,0.10443159937858582,1.0191887617111206,0.0000152587890625,-0.0006256103515625,-0.000518798828125,-2.0653326511383057,0.10559004545211792,0.043484002351760864
386,2024-10-03T09:08:58.288Z,-0.04587135836482048,0.1068713515996933,1.019431471824646,0.0000152587890625,-0.0006256103515625,-0.000518798828125,-2.0653326511383057,0.10559004545211792,0.043484002351760864
387,2024-10-03T09:08:58.288Z,-0.04587135836482048,0.1068713515996933,1.019431471824646,0.0000152587890625,-0.0006256103515625,-0.000518798828125,-2.0652854442596436,0.10551244765520096,0.04348531737923622
388,2024-10-03T09:08:58.292Z,-0.04587135836482048,0.1068713515996933,1.019431471824646,0.0006103515625,0.0018157958984375,-0.000518798828125,-2.0652854442596436,0.10551244765520096,0.04348531737923622
389,2024-10-03T09:08:58.314Z,-0.041967444121837616,0.10955538600683212,1.0182116031646729,0.0006103515625,0.0018157958984375,-0.000518798828125,-2.0652854442596436,0.10551244765520096,0.04348531737923622
390,2024-10-03T09:08:58.329Z,-0.041967444121837616,0.10955538600683212,1.0182116031646729,-0.0006103515625,0.0005950927734375,0.000701904296875,-2.0652854442596436,0.10551244765520096,0.04348531737923622
391,2024-10-03T09:08:58.330Z,-0.041967444121837616,0.10955538600683212,1.0182116031646729,-0.0006103515625,0.0005950927734375,0.000701904296875,-2.0653069019317627,0.10552965849637985,0.04351029917597771
392,2024-10-03T09:08:58.341Z,-0.043431606143713,0.10711563378572464,1.0206513404846191,-0.0006103515625,0.0005950927734375,0.000701904296875,-2.0653069019317627,0.10552965849637985,0.04351029917597771
393,2024-10-03T09:08:58.358Z,-0.043431606143713,0.10711563378572464,1.0206513404846191,0.0006103515625,-0.0006256103515625,0.000091552734375,-2.0653069019317627,0.10552965849637985,0.04351029917597771
394,2024-10-03T09:08:58.358Z,-0.043431606143713,0.10711563378572464,1.0206513404846191,0.0006103515625,-0.0006256103515625,0.000091552734375,-2.0652220249176025,0.10544183105230331,0.043439432978630066
395,2024-10-03T09:08:58.368Z,-0.04514005407691002,0.11028824746608734,1.0204086303710938,0.0006103515625,-0.0006256103515625,0.000091552734375,-2.0652220249176025,0.10544183105230331,0.043439432978630066
396,2024-10-03T09:08:58.382Z,-0.04514005407691002,0.11028824746608734,1.0204086303710938,0.0000152587890625,-0.000030517578125,-0.001129150390625,-2.0652220249176025,0.10544183105230331,0.043439432978630066
397,2024-10-03T09:08:58.392Z,-0.04514005407691002,0.11028824746608734,1.0204086303710938,0.0000152587890625,-0.000030517578125,-0.001129150390625,-2.065277099609375,0.1054958626627922,0.0434899739921093
398,2024-10-03T09:08:58.396Z,-0.041967444121837616,0.10857979953289032,1.0182116031646729,0.0000152587890625,-0.000030517578125,-0.001129150390625,-2.065277099609375,0.1054958626627922,0.0434899739921093
399,2024-10-03T09:08:58.418Z,-0.041967444121837616,0.10857979953289032,1.0182116031646729,0.0000152587890625,-0.001251220703125,0.000701904296875,-2.065277099609375,0.1054958626627922,0.0434899739921093
400,2024-10-03T09:08:58.427Z,-0.0466042160987854,0.10614004731178284,1.0213842391967773,0.0000152587890625,-0.001251220703125,0.000701904296875,-2.065277099609375,0.1054958626627922,0.0434899739921093
401,2024-10-03T09:08:58.427Z,-0.0466042160987854,0.10614004731178284,1.0213842391967773,0.0000152587890625,-0.001251220703125,0.000701904296875,-2.065246343612671,0.1054939478635788,0.04342186450958252
402,2024-10-03T09:08:58.447Z,-0.0466042160987854,0.10614004731178284,1.0213842391967773,0.0006103515625,-0.0006256103515625,-0.000518798828125,-2.065246343612671,0.1054939478635788,0.04342186450958252
403,2024-10-03T09:08:58.452Z,-0.044408753514289856,0.10882408171892166,1.0189443826675415,0.0006103515625,-0.0006256103515625,-0.000518798828125,-2.065246343612671,0.1054939478635788,0.04342186450958252
404,2024-10-03T09:08:58.456Z,-0.044408753514289856,0.10882408171892166,1.0189443826675415,0.0006103515625,-0.0006256103515625,-0.000518798828125,-2.065274477005005,0.10549318790435791,0.04348766431212425
405,2024-10-03T09:08:58.472Z,-0.044408753514289856,0.10882408171892166,1.0189443826675415,-0.0006103515625,-0.000030517578125,0.000091552734375,-2.065274477005005,0.10549318790435791,0.04348766431212425
406,2024-10-03T09:08:58.477Z,-0.04367589205503464,0.10638432949781418,1.019431471824646,-0.0006103515625,-0.000030517578125,0.000091552734375,-2.065274477005005,0.10549318790435791,0.04348766431212425
407,2024-10-03T09:08:58.489Z,-0.04367589205503464,0.10638432949781418,1.019431471824646,-0.0006103515625,-0.000030517578125,0.000091552734375,-2.065232992172241,0.10545244067907333,0.043450333178043365
408,2024-10-03T09:08:58.499Z,-0.04367589205503464,0.10638432949781418,1.019431471824646,-0.0018310546875,-0.0006256103515625,-0.000518798828125,-2.065232992172241,0.10545244067907333,0.043450333178043365
409,2024-10-03T09:08:58.507Z,-0.0466042160987854,0.11077526211738586,1.0206513404846191,-0.0018310546875,-0.0006256103515625,-0.000518798828125,-2.065232992172241,0.10545244067907333,0.043450333178043365
410,2024-10-03T09:08:58.618Z,-0.0466042160987854,0.11077526211738586,1.0206513404846191,-0.0030517578125,-0.000030517578125,0.000091552734375,-2.065232992172241,0.10545244067907333,0.043450333178043365
411,2024-10-03T09:08:58.618Z,-0.04538433998823166,0.10760420560836792,1.0174802541732788,-0.0030517578125,-0.000030517578125,0.000091552734375,-2.065232992172241,0.10545244067907333,0.043450333178043365
412,2024-10-03T09:08:58.619Z,-0.044164467602968216,0.1090683713555336,1.019919991493225,-0.0030517578125,-0.000030517578125,0.000091552734375,-2.065232992172241,0.10545244067907333,0.043450333178043365
413,2024-10-03T09:08:58.620Z,-0.044164467602968216,0.1090683713555336,1.019919991493225,-0.0042724609375,-0.0018463134765625,-0.001739501953125,-2.065232992172241,0.10545244067907333,0.043450333178043365
414,2024-10-03T09:08:58.620Z,-0.044164467602968216,0.1090683713555336,1.019919991493225,-0.0067138671875,-0.001251220703125,0.000091552734375,-2.065232992172241,0.10545244067907333,0.043450333178043365
415,2024-10-03T09:08:58.620Z,-0.044164467602968216,0.10809122025966644,1.018700122833252,-0.0067138671875,-0.001251220703125,0.000091552734375,-2.065232992172241,0.10545244067907333,0.043450333178043365
416,2024-10-03T09:08:58.620Z,-0.04538433998823166,0.10614004731178284,1.0204086303710938,-0.0067138671875,-0.001251220703125,0.000091552734375,-2.065232992172241,0.10545244067907333,0.043450333178043365
417,2024-10-03T09:08:58.621Z,-0.04538433998823166,0.10614004731178284,1.0204086303710938,-0.0060882568359375,-0.0018463134765625,0.000701904296875,-2.065232992172241,0.10545244067907333,0.043450333178043365
418,2024-10-03T09:08:58.621Z,-0.04538433998823166,0.10614004731178284,1.0204086303710938,-0.0060882568359375,-0.0018463134765625,0.000701904296875,-2.0649707317352295,0.10507147759199142,0.04338766634464264
419,2024-10-03T09:08:58.621Z,-0.04538433998823166,0.10614004731178284,1.0204086303710938,-0.0060882568359375,-0.0018463134765625,0.000701904296875,-2.0649707317352295,0.10507147759199142,0.04338766634464264
420,2024-10-03T09:08:58.621Z,-0.04538433998823166,0.10614004731178284,1.0204086303710938,-0.0060882568359375,-0.0018463134765625,0.000701904296875,-2.0649707317352295,0.10507147759199142,0.04338766634464264
421,2024-10-03T09:08:58.624Z,-0.04538433998823166,0.10614004731178284,1.0204086303710938,-0.0060882568359375,-0.0018463134765625,0.000701904296875,-2.0649707317352295,0.10507147759199142,0.04338766634464264
422,2024-10-03T09:08:58.643Z,-0.04538433998823166,0.1100439578294754,1.0182116031646729,-0.0060882568359375,-0.0018463134765625,0.000701904296875,-2.0649707317352295,0.10507147759199142,0.04338766634464264
423,2024-10-03T09:08:58.643Z,-0.04538433998823166,0.1100439578294754,1.0182116031646729,-0.0042724609375,0.0005950927734375,0.001312255859375,-2.0649707317352295,0.10507147759199142,0.04338766634464264
424,2024-10-03T09:08:58.653Z,-0.04538433998823166,0.1100439578294754,1.0182116031646729,-0.0042724609375,0.0005950927734375,0.001312255859375,-2.064871072769165,0.10492359846830368,0.04336779564619064
425,2024-10-03T09:08:58.672Z,-0.04538433998823166,0.1068713515996933,1.0223597288131714,-0.0042724609375,0.0005950927734375,0.001312255859375,-2.064871072769165,0.10492359846830368,0.04336779564619064
426,2024-10-03T09:08:58.672Z,-0.04538433998823166,0.1068713515996933,1.0223597288131714,-0.0018310546875,0.0005950927734375,0.000091552734375,-2.064871072769165,0.10492359846830368,0.04336779564619064
427,2024-10-03T09:08:58.687Z,-0.04538433998823166,0.1068713515996933,1.0223597288131714,-0.0018310546875,0.0005950927734375,0.000091552734375,-2.064822196960449,0.10482260584831238,0.04339858144521713
428,2024-10-03T09:08:58.696Z,-0.042944591492414474,0.10565147548913956,1.0182116031646729,-0.0018310546875,0.0005950927734375,0.000091552734375,-2.064822196960449,0.10482260584831238,0.04339858144521713
429,2024-10-03T09:08:58.699Z,-0.042944591492414474,0.10565147548913956,1.0182116031646729,0.0012359619140625,-0.001251220703125,-0.001129150390625,-2.064822196960449,0.10482260584831238,0.04339858144521713
430,2024-10-03T09:08:58.725Z,-0.042944591492414474,0.10565147548913956,1.0182116031646729,0.0012359619140625,-0.001251220703125,-0.001129150390625,-2.0647850036621094,0.10477963835000992,0.04337483271956444
431,2024-10-03T09:08:58.726Z,-0.042700305581092834,0.1100439578294754,1.019919991493225,0.0012359619140625,-0.001251220703125,-0.001129150390625,-2.0647850036621094,0.10477963835000992,0.04337483271956444
432,2024-10-03T09:08:58.727Z,-0.042700305581092834,0.1100439578294754,1.019919991493225,0.0012359619140625,0.0012054443359375,-0.000518798828125,-2.0647850036621094,0.10477963835000992,0.04337483271956444
433,2024-10-03T09:08:58.767Z,-0.044164467602968216,0.10662861913442612,1.0196757316589355,0.0012359619140625,0.0012054443359375,-0.000518798828125,-2.0647850036621094,0.10477963835000992,0.04337483271956444
434,2024-10-03T09:08:58.767Z,-0.044164467602968216,0.10662861913442612,1.0196757316589355,-0.0006103515625,-0.000030517578125,0.000701904296875,-2.0647850036621094,0.10477963835000992,0.04337483271956444
435,2024-10-03T09:08:58.767Z,-0.044164467602968216,0.10662861913442612,1.0196757316589355,-0.0006103515625,-0.000030517578125,0.000701904296875,-2.0648159980773926,0.10485399514436722,0.04334012791514397
436,2024-10-03T09:08:58.784Z,-0.04538433998823166,0.10784849524497986,1.0191887617111206,-0.0006103515625,-0.000030517578125,0.000701904296875,-2.0648159980773926,0.10485399514436722,0.04334012791514397
437,2024-10-03T09:08:58.785Z,-0.04538433998823166,0.10784849524497986,1.0191887617111206,0.0012359619140625,0.0005950927734375,0.000701904296875,-2.0648159980773926,0.10485399514436722,0.04334012791514397
438,2024-10-03T09:08:58.802Z,-0.04538433998823166,0.10784849524497986,1.0191887617111206,0.0012359619140625,0.0005950927734375,0.000701904296875,-2.064810276031494,0.10480324178934097,0.04339919611811638
439,2024-10-03T09:08:58.811Z,-0.04538433998823166,0.11150811612606049,1.0213842391967773,0.0012359619140625,0.0005950927734375,0.000701904296875,-2.064810276031494,0.10480324178934097,0.04339919611811638
440,2024-10-03T09:08:58.811Z,-0.04538433998823166,0.11150811612606049,1.0213842391967773,-0.0012054443359375,-0.001251220703125,0.000091552734375,-2.064810276031494,0.10480324178934097,0.04339919611811638
441,2024-10-03T09:08:58.833Z,-0.04538433998823166,0.11150811612606049,1.0213842391967773,-0.0012054443359375,-0.001251220703125,0.000091552734375,-2.064861297607422,0.10489236563444138,0.04339011386036873
442,2024-10-03T09:08:58.845Z,-0.044164467602968216,0.10565147548913956,1.0196757316589355,-0.0012054443359375,-0.001251220703125,0.000091552734375,-2.064861297607422,0.10489236563444138,0.04339011386036873
443,2024-10-03T09:08:58.845Z,-0.044164467602968216,0.10565147548913956,1.0196757316589355,-0.0006103515625,-0.000030517578125,0.000701904296875,-2.064861297607422,0.10489236563444138,0.04339011386036873
444,2024-10-03T09:08:58.862Z,-0.044164467602968216,0.10565147548913956,1.0196757316589355,-0.0006103515625,-0.000030517578125,0.000701904296875,-2.0647923946380615,0.10478038340806961,0.04339037090539932
445,2024-10-03T09:08:58.874Z,-0.042211733758449554,0.10833550989627838,1.0196757316589355,-0.0006103515625,-0.000030517578125,0.000701904296875,-2.0647923946380615,0.10478038340806961,0.04339037090539932
446,2024-10-03T09:08:58.876Z,-0.042211733758449554,0.10833550989627838,1.0196757316589355,0.0000152587890625,-0.000030517578125,-0.001129150390625,-2.0647923946380615,0.10478038340806961,0.04339037090539932
447,2024-10-03T09:08:58.892Z,-0.042211733758449554,0.10833550989627838,1.0196757316589355,0.0000152587890625,-0.000030517578125,-0.001129150390625,-2.064812421798706,0.10485459864139557,0.04333135858178139
448,2024-10-03T09:08:58.897Z,-0.044164467602968216,0.10809122025966644,1.0204086303710938,0.0000152587890625,-0.000030517578125,-0.001129150390625,-2.064812421798706,0.10485459864139557,0.04333135858178139
449,2024-10-03T09:08:58.903Z,-0.044164467602968216,0.10809122025966644,1.0204086303710938,0.0006103515625,0.0012054443359375,0.000091552734375,-2.064812421798706,0.10485459864139557,0.04333135858178139
450,2024-10-03T09:08:58.950Z,-0.044408753514289856,0.10565147548913956,1.0201643705368042,0.0006103515625,0.0012054443359375,0.000091552734375,-2.064812421798706,0.10485459864139557,0.04333135858178139
451,2024-10-03T09:08:58.950Z,-0.044408753514289856,0.10565147548913956,1.0201643705368042,0.0012359619140625,-0.001251220703125,0.000091552734375,-2.064812421798706,0.10485459864139557,0.04333135858178139
452,2024-10-03T09:08:58.950Z,-0.044408753514289856,0.10565147548913956,1.0201643705368042,0.0012359619140625,-0.001251220703125,0.000091552734375,-2.064791202545166,0.10481280833482742,0.043341707438230515
453,2024-10-03T09:08:58.951Z,-0.04367589205503464,0.11248371005058289,1.0201643705368042,0.0012359619140625,-0.001251220703125,0.000091552734375,-2.064791202545166,0.10481280833482742,0.043341707438230515
454,2024-10-03T09:08:58.965Z,-0.04367589205503464,0.11248371005058289,1.0201643705368042,-0.0018310546875,-0.000030517578125,0.000701904296875,-2.064791202545166,0.10481280833482742,0.043341707438230515
455,2024-10-03T09:08:58.965Z,-0.04367589205503464,0.11248371005058289,1.0201643705368042,-0.0018310546875,-0.000030517578125,0.000701904296875,-2.064897060394287,0.10498272627592087,0.04334389790892601
456,2024-10-03T09:08:58.977Z,-0.042456019669771194,0.1058957576751709,1.018700122833252,-0.0018310546875,-0.000030517578125,0.000701904296875,-2.064897060394287,0.10498272627592087,0.04334389790892601
457,2024-10-03T09:08:58.984Z,-0.042456019669771194,0.1058957576751709,1.018700122833252,-0.0012054443359375,-0.0006256103515625,0.000091552734375,-2.064897060394287,0.10498272627592087,0.04334389790892601
458,2024-10-03T09:08:58.994Z,-0.042456019669771194,0.1058957576751709,1.018700122833252,-0.0012054443359375,-0.0006256103515625,0.000091552734375,-2.064903736114502,0.10498887300491333,0.04335015267133713
459,2024-10-03T09:08:59.007Z,-0.04465148225426674,0.10784849524497986,1.0189443826675415,-0.0012054443359375,-0.0006256103515625,0.000091552734375,-2.064903736114502,0.10498887300491333,0.04335015267133713
460,2024-10-03T09:08:59.009Z,-0.04465148225426674,0.10784849524497986,1.0189443826675415,0.0006103515625,-0.000030517578125,-0.000518798828125,-2.064903736114502,0.10498887300491333,0.04335015267133713
461,2024-10-03T09:08:59.026Z,-0.04465148225426674,0.10784849524497986,1.0189443826675415,0.0006103515625,-0.000030517578125,-0.000518798828125,-2.064868927001953,0.10491885989904404,0.04337012767791748
462,2024-10-03T09:08:59.033Z,-0.04148042947053909,0.10955538600683212,1.0189443826675415,0.0006103515625,-0.000030517578125,-0.000518798828125,-2.064868927001953,0.10491885989904404,0.04337012767791748
463,2024-10-03T09:08:59.037Z,-0.04148042947053909,0.10955538600683212,1.0189443826675415,-0.0012054443359375,0.0012054443359375,-0.000518798828125,-2.064868927001953,0.10491885989904404,0.04337012767791748
464,2024-10-03T09:08:59.061Z,-0.04465148225426674,0.1058957576751709,1.0213842391967773,-0.0012054443359375,0.0012054443359375,-0.000518798828125,-2.064868927001953,0.10491885989904404,0.04337012767791748
465,2024-10-03T09:08:59.062Z,-0.04465148225426674,0.1058957576751709,1.0213842391967773,-0.0012054443359375,0.0012054443359375,-0.000518798828125,-2.064899206161499,0.10499084740877151,0.04333765432238579
466,2024-10-03T09:08:59.073Z,-0.04465148225426674,0.1058957576751709,1.0213842391967773,0.0000152587890625,-0.0006256103515625,-0.000518798828125,-2.064899206161499,0.10499084740877151,0.04333765432238579
467,2024-10-03T09:08:59.082Z,-0.04465148225426674,0.1058957576751709,1.0213842391967773,0.0000152587890625,-0.0006256103515625,-0.000518798828125,-2.064854621887207,0.10490883886814117,0.04335078224539757
468,2024-10-03T09:08:59.096Z,-0.04489576816558838,0.10882408171892166,1.019919991493225,0.0000152587890625,-0.0006256103515625,-0.000518798828125,-2.064854621887207,0.10490883886814117,0.04335078224539757
469,2024-10-03T09:08:59.099Z,-0.04489576816558838,0.10882408171892166,1.019919991493225,0.0006103515625,-0.0006256103515625,-0.000518798828125,-2.064854621887207,0.10490883886814117,0.04335078224539757
470,2024-10-03T09:08:59.109Z,-0.04489576816558838,0.10882408171892166,1.019919991493225,0.0006103515625,-0.0006256103515625,-0.000518798828125,-2.0648930072784424,0.10497170686721802,0.043350204825401306
471,2024-10-03T09:08:59.125Z,-0.04489576816558838,0.10882408171892166,1.0208956003189087,0.0006103515625,-0.0006256103515625,-0.000518798828125,-2.0648930072784424,0.10497170686721802,0.043350204825401306
472,2024-10-03T09:08:59.130Z,-0.04489576816558838,0.10882408171892166,1.0208956003189087,-0.0012054443359375,0.0005950927734375,-0.000518798828125,-2.0648930072784424,0.10497170686721802,0.043350204825401306
473,2024-10-03T09:08:59.143Z,-0.04489576816558838,0.10882408171892166,1.0208956003189087,-0.0012054443359375,0.0005950927734375,-0.000518798828125,-2.064910650253296,0.10500575602054596,0.04334244132041931
474,2024-10-03T09:08:59.152Z,-0.04465148225426674,0.10614004731178284,1.019431471824646,-0.0012054443359375,0.0005950927734375,-0.000518798828125,-2.064910650253296,0.10500575602054596,0.04334244132041931
475,2024-10-03T09:08:59.157Z,-0.04465148225426674,0.10614004731178284,1.019431471824646,0.0012359619140625,-0.000030517578125,0.000091552734375,-2.064910650253296,0.10500575602054596,0.04334244132041931
476,2024-10-03T09:08:59.175Z,-0.04465148225426674,0.10614004731178284,1.019431471824646,0.0012359619140625,-0.000030517578125,0.000091552734375,-2.0648868083953857,0.10493593662977219,0.04338666424155235
477,2024-10-03T09:08:59.178Z,-0.043920181691646576,0.10735992342233658,1.0201643705368042,0.0012359619140625,-0.000030517578125,0.000091552734375,-2.0648868083953857,0.10493593662977219,0.04338666424155235
478,2024-10-03T09:08:59.184Z,-0.043920181691646576,0.10735992342233658,1.0201643705368042,0.0000152587890625,-0.001251220703125,-0.000518798828125,-2.0648868083953857,0.10493593662977219,0.04338666424155235
479,2024-10-03T09:08:59.208Z,-0.043920181691646576,0.10735992342233658,1.0201643705368042,0.0000152587890625,-0.001251220703125,-0.000518798828125,-2.064915180206299,0.10499384254217148,0.04336981102824211
480,2024-10-03T09:08:59.212Z,-0.042944591492414474,0.10565147548913956,1.0179673433303833,0.0000152587890625,-0.001251220703125,-0.000518798828125,-2.064915180206299,0.10499384254217148,0.04336981102824211
481,2024-10-03T09:08:59.212Z,-0.042944591492414474,0.10565147548913956,1.0179673433303833,0.0000152587890625,-0.000030517578125,0.000091552734375,-2.064915180206299,0.10499384254217148,0.04336981102824211
482,2024-10-03T09:08:59.243Z,-0.042944591492414474,0.10565147548913956,1.0179673433303833,0.0000152587890625,-0.000030517578125,0.000091552734375,-2.0671379566192627,0.10822952538728714,0.04525067284703255
483,2024-10-03T09:08:59.243Z,-0.018299685791134834,0.1198045164346695,1.0511512756347656,0.0000152587890625,-0.000030517578125,0.000091552734375,-2.0671379566192627,0.10822952538728714,0.04525067284703255
484,2024-10-03T09:08:59.243Z,-0.018299685791134834,0.1198045164346695,1.0511512756347656,-0.09527587890625,-0.0330047607421875,0.061187744140625,-2.0671379566192627,0.10822952538728714,0.04525067284703255
485,2024-10-03T09:08:59.265Z,-0.04611564427614212,0.07612862437963486,0.998203456401825,-0.09527587890625,-0.0330047607421875,0.061187744140625,-2.0671379566192627,0.10822952538728714,0.04525067284703255
486,2024-10-03T09:08:59.266Z,-0.04611564427614212,0.07612862437963486,0.998203456401825,-0.0341949462890625,-0.016510009765625,0.0123138427734375,-2.0671379566192627,0.10822952538728714,0.04525067284703255
487,2024-10-03T09:08:59.275Z,-0.04611564427614212,0.07612862437963486,0.998203456401825,-0.0341949462890625,-0.016510009765625,0.0123138427734375,-2.0651044845581055,0.10544195026159286,0.04382627084851265
