ID,Event Time,AccX,AccY,AccZ,GyroX,GyroY,GyroZ,RotX,RotY,RotZ
1,2024-10-03T10:33:18.261Z,-0.042700305581092834,0.11053252965211868,1.0162603855133057,-0.0341949462890625,-0.016510009765625,0.0123138427734375,-2.0651044845581055,0.10544195026159286,0.04382627084851265
2,2024-10-03T10:33:18.262Z,-0.042700305581092834,0.11053252965211868,1.0162603855133057,-0.0250244140625,-0.007965087890625,0.009857177734375,-2.0651044845581055,0.10544195026159286,0.04382627084851265
3,2024-10-03T10:33:18.265Z,-0.042700305581092834,0.11053252965211868,1.0162603855133057,-0.0250244140625,-0.007965087890625,0.009857177734375,-2.064913749694824,0.10579957067966461,0.04401416704058647
4,2024-10-03T10:33:18.267Z,-0.042211733758449554,0.09393973648548126,1.0357799530029297,-0.0250244140625,-0.007965087890625,0.009857177734375,-2.064913749694824,0.10579957067966461,0.04401416704058647
5,2024-10-03T10:33:18.273Z,-0.042211733758449554,0.09393973648548126,1.0357799530029297,0.0152740478515625,0.0054779052734375,-0.009063720703125,-2.064913749694824,0.10579957067966461,0.04401416704058647
6,2024-10-03T10:33:18.287Z,-0.042211733758449554,0.09393973648548126,1.0357799530029297,0.0152740478515625,0.0054779052734375,-0.009063720703125,-2.0192060470581055,0.10757360607385635,0.041584309190511703
7,2024-10-03T10:33:18.293Z,-0.05392346903681755,0.10516445338726044,1.0179673433303833,0.0152740478515625,0.0054779052734375,-0.009063720703125,-2.0192060470581055,0.10757360607385635,0.041584309190511703
8,2024-10-03T10:33:18.299Z,-0.05392346903681755,0.10516445338726044,1.0179673433303833,0.0140533447265625,0.0054779052734375,-0.0084686279296875,-2.0192060470581055,0.10757360607385635,0.041584309190511703
9,2024-10-03T10:33:18.320Z,-0.05392346903681755,0.10516445338726044,1.0179673433303833,0.0140533447265625,0.0054779052734375,-0.0084686279296875,-2.018960952758789,0.10688295215368271,0.04220675677061081
10,2024-10-03T10:33:18.321Z,-0.041967444121837616,0.1058957576751709,1.0130877494812012,0.0140533447265625,0.0054779052734375,-0.0084686279296875,-2.018960952758789,0.10688295215368271,0.04220675677061081
11,2024-10-03T10:33:18.326Z,-0.041967444121837616,0.1058957576751709,1.0130877494812012,-0.0030517578125,-0.0042877197265625,0.001922607421875,-2.018960952758789,0.10688295215368271,0.04220675677061081
12,2024-10-03T10:33:18.347Z,-0.04074757173657417,0.11321656405925751,1.0167474746704102,-0.0030517578125,-0.0042877197265625,0.001922607421875,-2.018960952758789,0.10688295215368271,0.04220675677061081
13,2024-10-03T10:33:18.353Z,-0.04074757173657417,0.11321656405925751,1.0167474746704102,-0.0067138671875,-0.001251220703125,0.002532958984375,-2.018960952758789,0.10688295215368271,0.04220675677061081
14,2024-10-03T10:33:18.353Z,-0.04074757173657417,0.11321656405925751,1.0167474746704102,-0.0067138671875,-0.001251220703125,0.002532958984375,-2.0190043449401855,0.1069779098033905,0.04217662289738655
15,2024-10-03T10:33:18.376Z,-0.04026055335998535,0.11223942041397095,1.0218727588653564,-0.0067138671875,-0.001251220703125,0.002532958984375,-2.0190043449401855,0.1069779098033905,0.04217662289738655
16,2024-10-03T10:33:18.380Z,-0.04026055335998535,0.11223942041397095,1.0218727588653564,-0.0012054443359375,-0.000030517578125,-0.000518798828125,-2.0190043449401855,0.1069779098033905,0.04217662289738655
17,2024-10-03T10:33:18.387Z,-0.04026055335998535,0.11223942041397095,1.0218727588653564,-0.0012054443359375,-0.000030517578125,-0.000518798828125,-2.019773006439209,0.10719391703605652,0.04269826039671898
18,2024-10-03T10:33:18.406Z,-0.043920181691646576,0.10979966819286346,1.0189443826675415,-0.0012054443359375,-0.000030517578125,-0.000518798828125,-2.019773006439209,0.10719391703605652,0.04269826039671898
19,2024-10-03T10:33:18.406Z,-0.043920181691646576,0.10979966819286346,1.0189443826675415,0.0042877197265625,0.0012054443359375,-0.000518798828125,-2.019773006439209,0.10719391703605652,0.04269826039671898
20,2024-10-03T10:33:18.421Z,-0.043920181691646576,0.10979966819286346,1.0189443826675415,0.0042877197265625,0.0012054443359375,-0.000518798828125,-2.0197956562042236,0.10704724490642548,0.04267067462205887
21,2024-10-03T10:33:18.434Z,-0.043920181691646576,0.10979966819286346,1.0189443826675415,0.0048980712890625,0.0018157958984375,-0.002349853515625,-2.0197956562042236,0.10704724490642548,0.04267067462205887
22,2024-10-03T10:33:18.434Z,-0.04733552038669586,0.10833550989627838,1.0196757316589355,0.0048980712890625,0.0018157958984375,-0.002349853515625,-2.0197956562042236,0.10704724490642548,0.04267067462205887
23,2024-10-03T10:33:18.453Z,-0.04733552038669586,0.10833550989627838,1.0196757316589355,0.0048980712890625,0.0018157958984375,-0.002349853515625,-2.019881010055542,0.1069895327091217,0.04274233058094978
24,2024-10-03T10:33:18.459Z,-0.04733552038669586,0.10833550989627838,1.0196757316589355,0.0018463134765625,0.0005950927734375,0.000091552734375,-2.019881010055542,0.1069895327091217,0.04274233058094978
25,2024-10-03T10:33:18.463Z,-0.041967444121837616,0.11175240576267242,1.0174802541732788,0.0018463134765625,0.0005950927734375,0.000091552734375,-2.019881010055542,0.1069895327091217,0.04274233058094978
26,2024-10-03T10:33:18.486Z,-0.041967444121837616,0.11175240576267242,1.0174802541732788,-0.0006103515625,0.0012054443359375,-0.000518798828125,-2.019881010055542,0.1069895327091217,0.04274233058094978
27,2024-10-03T10:33:18.487Z,-0.041967444121837616,0.11175240576267242,1.0174802541732788,-0.0006103515625,0.0012054443359375,-0.000518798828125,-2.0202856063842773,0.10707277059555054,0.04278460144996643
28,2024-10-03T10:33:18.492Z,-0.0456286258995533,0.11150811612606049,1.0174802541732788,-0.0006103515625,0.0012054443359375,-0.000518798828125,-2.0202856063842773,0.10707277059555054,0.04278460144996643
29,2024-10-03T10:33:18.513Z,-0.0456286258995533,0.11150811612606049,1.0174802541732788,-0.0018310546875,-0.000030517578125,-0.001739501953125,-2.0202856063842773,0.10707277059555054,0.04278460144996643
30,2024-10-03T10:33:18.520Z,-0.044164467602968216,0.10857979953289032,1.0211398601531982,-0.0018310546875,-0.000030517578125,-0.001739501953125,-2.0202856063842773,0.10707277059555054,0.04278460144996643
31,2024-10-03T10:33:18.521Z,-0.044164467602968216,0.10857979953289032,1.0211398601531982,-0.0018310546875,-0.000030517578125,-0.001739501953125,-2.020817756652832,0.10706280171871185,0.04294697940349579
32,2024-10-03T10:33:18.540Z,-0.044164467602968216,0.10857979953289032,1.0211398601531982,-0.0012054443359375,-0.0006256103515625,0.000091552734375,-2.020817756652832,0.10706280171871185,0.04294697940349579
33,2024-10-03T10:33:18.547Z,-0.043920181691646576,0.1110195443034172,1.0179673433303833,-0.0012054443359375,-0.0006256103515625,0.000091552734375,-2.020817756652832,0.10706280171871185,0.04294697940349579
34,2024-10-03T10:33:18.555Z,-0.043920181691646576,0.1110195443034172,1.0179673433303833,-0.0012054443359375,-0.0006256103515625,0.000091552734375,-2.0210559368133545,0.10695245862007141,0.04284735396504402
35,2024-10-03T10:33:18.566Z,-0.043920181691646576,0.1110195443034172,1.0179673433303833,0.0006103515625,0.0012054443359375,0.000701904296875,-2.0210559368133545,0.10695245862007141,0.04284735396504402
36,2024-10-03T10:33:18.573Z,-0.04611564427614212,0.10931265354156494,1.0191887617111206,0.0006103515625,0.0012054443359375,0.000701904296875,-2.0210559368133545,0.10695245862007141,0.04284735396504402
37,2024-10-03T10:33:18.588Z,-0.04611564427614212,0.10931265354156494,1.0191887617111206,0.0006103515625,0.0012054443359375,0.000701904296875,-2.0214858055114746,0.1068941056728363,0.04303363710641861
38,2024-10-03T10:33:18.593Z,-0.04611564427614212,0.10931265354156494,1.0191887617111206,-0.0012054443359375,-0.000030517578125,0.000091552734375,-2.0214858055114746,0.1068941056728363,0.04303363710641861
39,2024-10-03T10:33:18.600Z,-0.04099185764789581,0.10857979953289032,1.0184558629989624,-0.0012054443359375,-0.000030517578125,0.000091552734375,-2.0214858055114746,0.1068941056728363,0.04303363710641861
40,2024-10-03T10:33:18.620Z,-0.04099185764789581,0.10857979953289032,1.0184558629989624,-0.0012054443359375,0.0005950927734375,0.000091552734375,-2.0214858055114746,0.1068941056728363,0.04303363710641861
41,2024-10-03T10:33:18.621Z,-0.04099185764789581,0.10857979953289032,1.0184558629989624,-0.0012054443359375,0.0005950927734375,0.000091552734375,-2.0221104621887207,0.10690063238143921,0.04294699802994728
42,2024-10-03T10:33:18.626Z,-0.04709123447537422,0.11053252965211868,1.0165046453475952,-0.0012054443359375,0.0005950927734375,0.000091552734375,-2.0221104621887207,0.10690063238143921,0.04294699802994728
43,2024-10-03T10:33:18.646Z,-0.04709123447537422,0.11053252965211868,1.0165046453475952,0.0012359619140625,-0.000030517578125,0.000701904296875,-2.0221104621887207,0.10690063238143921,0.04294699802994728
44,2024-10-03T10:33:18.653Z,-0.04148042947053909,0.10784849524497986,1.0189443826675415,0.0012359619140625,-0.000030517578125,0.000701904296875,-2.0221104621887207,0.10690063238143921,0.04294699802994728
45,2024-10-03T10:33:18.654Z,-0.04148042947053909,0.10784849524497986,1.0189443826675415,0.0012359619140625,-0.000030517578125,0.000701904296875,-2.0224945545196533,0.10693280398845673,0.04300583153963089
46,2024-10-03T10:33:18.671Z,-0.04148042947053909,0.10784849524497986,1.0189443826675415,0.0000152587890625,0.0018157958984375,-0.001129150390625,-2.0224945545196533,0.10693280398845673,0.04300583153963089
47,2024-10-03T10:33:18.681Z,-0.044408753514289856,0.10882408171892166,1.019919991493225,0.0000152587890625,0.0018157958984375,-0.001129150390625,-2.0224945545196533,0.10693280398845673,0.04300583153963089
48,2024-10-03T10:33:18.690Z,-0.044408753514289856,0.10882408171892166,1.019919991493225,0.0000152587890625,0.0018157958984375,-0.001129150390625,-2.022446393966675,0.10691703855991364,0.04300311207771301
49,2024-10-03T10:33:18.698Z,-0.044408753514289856,0.10882408171892166,1.019919991493225,-0.0006103515625,0.0012054443359375,0.000091552734375,-2.022446393966675,0.10691703855991364,0.04300311207771301
50,2024-10-03T10:33:18.710Z,-0.04611564427614212,0.10833550989627838,1.0201643705368042,-0.0006103515625,0.0012054443359375,0.000091552734375,-2.022446393966675,0.10691703855991364,0.04300311207771301
51,2024-10-03T10:33:18.731Z,-0.04611564427614212,0.10833550989627838,1.0201643705368042,-0.0006103515625,-0.001251220703125,0.000091552734375,-2.022446393966675,0.10691703855991364,0.04300311207771301
52,2024-10-03T10:33:18.732Z,-0.04611564427614212,0.10833550989627838,1.0201643705368042,-0.0006103515625,-0.001251220703125,0.000091552734375,-2.022282123565674,0.10688833147287369,0.04310508444905281
53,2024-10-03T10:33:18.736Z,-0.042700305581092834,0.1110195443034172,1.0196757316589355,-0.0006103515625,-0.001251220703125,0.000091552734375,-2.022282123565674,0.10688833147287369,0.04310508444905281
54,2024-10-03T10:33:18.750Z,-0.042700305581092834,0.1110195443034172,1.0196757316589355,-0.0018310546875,0.0012054443359375,0.000701904296875,-2.022282123565674,0.10688833147287369,0.04310508444905281
55,2024-10-03T10:33:18.759Z,-0.042700305581092834,0.1110195443034172,1.0196757316589355,-0.0018310546875,0.0012054443359375,0.000701904296875,-2.022582530975342,0.10693540424108505,0.04307183623313904
56,2024-10-03T10:33:18.763Z,-0.04465148225426674,0.11077526211738586,1.0184558629989624,-0.0018310546875,0.0012054443359375,0.000701904296875,-2.022582530975342,0.10693540424108505,0.04307183623313904
57,2024-10-03T10:33:18.776Z,-0.04465148225426674,0.11077526211738586,1.0184558629989624,-0.0018310546875,-0.000030517578125,-0.001129150390625,-2.022582530975342,0.10693540424108505,0.04307183623313904
58,2024-10-03T10:33:18.792Z,-0.03806353360414505,0.11028824746608734,1.0240682363510132,-0.0018310546875,-0.000030517578125,-0.001129150390625,-2.022582530975342,0.10693540424108505,0.04307183623313904
59,2024-10-03T10:33:18.798Z,-0.03806353360414505,0.11028824746608734,1.0240682363510132,-0.0018310546875,-0.000030517578125,-0.001129150390625,-2.023341655731201,0.10697582364082336,0.043118130415678024
60,2024-10-03T10:33:18.804Z,-0.03806353360414505,0.11028824746608734,1.0240682363510132,0.0048980712890625,0.0012054443359375,0.000091552734375,-2.023341655731201,0.10697582364082336,0.043118130415678024
61,2024-10-03T10:33:18.818Z,-0.04587135836482048,0.10052768886089325,1.0311447381973267,0.0048980712890625,0.0012054443359375,0.000091552734375,-2.023341655731201,0.10697582364082336,0.043118130415678024
62,2024-10-03T10:33:18.828Z,-0.04587135836482048,0.10052768886089325,1.0311447381973267,0.0048980712890625,0.0012054443359375,0.000091552734375,-2.0240304470062256,0.10684873163700104,0.043022520840168
63,2024-10-03T10:33:18.829Z,-0.04587135836482048,0.10052768886089325,1.0311447381973267,0.0073394775390625,0.0018157958984375,-0.001129150390625,-2.0240304470062256,0.10684873163700104,0.043022520840168
64,2024-10-03T10:33:18.846Z,-0.049775268882513046,0.10370029509067535,1.0206513404846191,0.0073394775390625,0.0018157958984375,-0.001129150390625,-2.0240304470062256,0.10684873163700104,0.043022520840168
65,2024-10-03T10:33:18.857Z,-0.049775268882513046,0.10370029509067535,1.0206513404846191,0.0110015869140625,0.0060882568359375,-0.006011962890625,-2.0240304470062256,0.10684873163700104,0.043022520840168
66,2024-10-03T10:33:18.857Z,-0.049775268882513046,0.10370029509067535,1.0206513404846191,0.0110015869140625,0.0060882568359375,-0.006011962890625,-2.0247113704681396,0.10691306740045547,0.043140608817338943
67,2024-10-03T10:33:18.872Z,-0.043431606143713,0.10394458472728729,1.0123565196990967,0.0110015869140625,0.0060882568359375,-0.006011962890625,-2.0247113704681396,0.10691306740045547,0.043140608817338943
68,2024-10-03T10:33:18.882Z,-0.043431606143713,0.10394458472728729,1.0123565196990967,0.0024566650390625,-0.0006256103515625,-0.001739501953125,-2.0247113704681396,0.10691306740045547,0.043140608817338943
69,2024-10-03T10:33:18.892Z,-0.043431606143713,0.10394458472728729,1.0123565196990967,0.0024566650390625,-0.0006256103515625,-0.001739501953125,-2.0257043838500977,0.10682220757007599,0.043024927377700806
70,2024-10-03T10:33:18.899Z,-0.0456286258995533,0.11541203409433365,1.0208956003189087,0.0024566650390625,-0.0006256103515625,-0.001739501953125,-2.0257043838500977,0.10682220757007599,0.043024927377700806
71,2024-10-03T10:33:18.909Z,-0.0456286258995533,0.11541203409433365,1.0208956003189087,-0.0060882568359375,-0.003692626953125,0.001312255859375,-2.0257043838500977,0.10682220757007599,0.043024927377700806
72,2024-10-03T10:33:18.926Z,-0.043920181691646576,0.11272799223661423,1.0226041078567505,-0.0060882568359375,-0.003692626953125,0.001312255859375,-2.0257043838500977,0.10682220757007599,0.043024927377700806
73,2024-10-03T10:33:18.927Z,-0.043920181691646576,0.11272799223661423,1.0226041078567505,-0.0060882568359375,-0.003692626953125,0.001312255859375,-2.0268850326538086,0.10693644732236862,0.043156836181879044
74,2024-10-03T10:33:18.936Z,-0.043920181691646576,0.11272799223661423,1.0226041078567505,-0.0036468505859375,-0.000030517578125,0.001922607421875,-2.0268850326538086,0.10693644732236862,0.043156836181879044
75,2024-10-03T10:33:18.952Z,-0.04538433998823166,0.11199669539928436,1.0204086303710938,-0.0036468505859375,-0.000030517578125,0.001922607421875,-2.0268850326538086,0.10693644732236862,0.043156836181879044
76,2024-10-03T10:33:18.957Z,-0.04538433998823166,0.11199669539928436,1.0204086303710938,-0.0036468505859375,-0.000030517578125,0.001922607421875,-2.0274100303649902,0.10690995305776596,0.043086424469947815
77,2024-10-03T10:33:18.961Z,-0.04538433998823166,0.11199669539928436,1.0204086303710938,0.0024566650390625,0.0024261474609375,-0.001129150390625,-2.0274100303649902,0.10690995305776596,0.043086424469947815
78,2024-10-03T10:33:18.980Z,-0.04953254014253616,0.10784849524497986,1.0208956003189087,0.0024566650390625,0.0024261474609375,-0.001129150390625,-2.0274100303649902,0.10690995305776596,0.043086424469947815
79,2024-10-03T10:33:18.988Z,-0.04953254014253616,0.10784849524497986,1.0208956003189087,0.0042877197265625,0.0018157958984375,-0.001739501953125,-2.0274100303649902,0.10690995305776596,0.043086424469947815
80,2024-10-03T10:33:18.992Z,-0.04953254014253616,0.10784849524497986,1.0208956003189087,0.0042877197265625,0.0018157958984375,-0.001739501953125,-2.027937650680542,0.10695039480924606,0.043178267776966095
81,2024-10-03T10:33:19.006Z,-0.042700305581092834,0.10760420560836792,1.0201643705368042,0.0042877197265625,0.0018157958984375,-0.001739501953125,-2.027937650680542,0.10695039480924606,0.043178267776966095
82,2024-10-03T10:33:19.015Z,-0.042700305581092834,0.10760420560836792,1.0201643705368042,0.0000152587890625,0.0005950927734375,-0.000518798828125,-2.027937650680542,0.10695039480924606,0.043178267776966095
83,2024-10-03T10:33:19.024Z,-0.042700305581092834,0.10760420560836792,1.0201643705368042,0.0000152587890625,0.0005950927734375,-0.000518798828125,-2.028823137283325,0.10687988251447678,0.04309365525841713
84,2024-10-03T10:33:19.038Z,-0.04684850201010704,0.11223942041397095,1.019431471824646,0.0000152587890625,0.0005950927734375,-0.000518798828125,-2.028823137283325,0.10687988251447678,0.04309365525841713
85,2024-10-03T10:33:19.041Z,-0.04684850201010704,0.11223942041397095,1.019431471824646,-0.0006103515625,-0.000030517578125,0.000091552734375,-2.028823137283325,0.10687988251447678,0.04309365525841713
86,2024-10-03T10:33:19.057Z,-0.04684850201010704,0.11223942041397095,1.019431471824646,-0.0006103515625,-0.000030517578125,0.000091552734375,-2.029115915298462,0.10688304901123047,0.04313569888472557
87,2024-10-03T10:33:19.065Z,-0.043920181691646576,0.10735992342233658,1.0172359943389893,-0.0006103515625,-0.000030517578125,0.000091552734375,-2.029115915298462,0.10688304901123047,0.04313569888472557
88,2024-10-03T10:33:19.069Z,-0.043920181691646576,0.10735992342233658,1.0172359943389893,0.0012359619140625,-0.000030517578125,0.000701904296875,-2.029115915298462,0.10688304901123047,0.04313569888472557
89,2024-10-03T10:33:19.095Z,-0.043920181691646576,0.10735992342233658,1.0172359943389893,0.0012359619140625,-0.000030517578125,0.000701904296875,-2.0296452045440674,0.10685102641582489,0.043085552752017975
90,2024-10-03T10:33:19.097Z,-0.043920181691646576,0.10735992342233658,1.0172359943389893,0.0006103515625,-0.0006256103515625,0.000091552734375,-2.0296452045440674,0.10685102641582489,0.043085552752017975
91,2024-10-03T10:33:19.100Z,-0.04587135836482048,0.11028824746608734,1.0208956003189087,0.0006103515625,-0.0006256103515625,0.000091552734375,-2.0296452045440674,0.10685102641582489,0.043085552752017975
92,2024-10-03T10:33:19.125Z,-0.04587135836482048,0.11028824746608734,1.0208956003189087,-0.0006103515625,0.0005950927734375,0.000091552734375,-2.0296452045440674,0.10685102641582489,0.043085552752017975
93,2024-10-03T10:33:19.126Z,-0.043920181691646576,0.11028824746608734,1.0196757316589355,-0.0006103515625,0.0005950927734375,0.000091552734375,-2.0296452045440674,0.10685102641582489,0.043085552752017975
94,2024-10-03T10:33:19.127Z,-0.043920181691646576,0.11028824746608734,1.0196757316589355,-0.0006103515625,0.0005950927734375,0.000091552734375,-2.0307600498199463,0.10692696273326874,0.043166179209947586
95,2024-10-03T10:33:19.150Z,-0.04318732023239136,0.1090683713555336,1.0182116031646729,-0.0006103515625,0.0005950927734375,0.000091552734375,-2.0307600498199463,0.10692696273326874,0.043166179209947586
96,2024-10-03T10:33:19.151Z,-0.04318732023239136,0.1090683713555336,1.0182116031646729,0.0000152587890625,-0.000030517578125,-0.001129150390625,-2.0307600498199463,0.10692696273326874,0.043166179209947586
97,2024-10-03T10:33:19.157Z,-0.04318732023239136,0.1090683713555336,1.0182116031646729,0.0000152587890625,-0.000030517578125,-0.001129150390625,-2.0309462547302246,0.10688323527574539,0.04309246689081192
98,2024-10-03T10:33:19.178Z,-0.04318732023239136,0.1090683713555336,1.0182116031646729,0.0000152587890625,-0.001251220703125,-0.001129150390625,-2.0309462547302246,0.10688323527574539,0.04309246689081192
99,2024-10-03T10:33:19.181Z,-0.050508130341768265,0.12297557294368744,1.0006448030471802,0.0000152587890625,-0.001251220703125,-0.001129150390625,-2.0309462547302246,0.10688323527574539,0.04309246689081192
100,2024-10-03T10:33:19.195Z,-0.050508130341768265,0.12297557294368744,1.0006448030471802,0.0000152587890625,-0.001251220703125,-0.001129150390625,-2.031930685043335,0.10692755877971649,0.043128304183483124
101,2024-10-03T10:33:19.204Z,-0.050508130341768265,0.12297557294368744,1.0006448030471802,-0.0128021240234375,-0.0042877197265625,0.001312255859375,-2.031930685043335,0.10692755877971649,0.043128304183483124
102,2024-10-03T10:33:19.206Z,-0.03001142293214798,0.10540874302387238,0.9960079789161682,-0.0128021240234375,-0.0042877197265625,0.001312255859375,-2.031930685043335,0.10692755877971649,0.043128304183483124
103,2024-10-03T10:33:19.226Z,-0.03001142293214798,0.10540874302387238,0.9960079789161682,-0.0128021240234375,-0.0042877197265625,0.001312255859375,-2.0322327613830566,0.10681533068418503,0.04299694299697876
104,2024-10-03T10:33:19.231Z,-0.03001142293214798,0.10540874302387238,0.9960079789161682,-0.0146484375,-0.001251220703125,0.004974365234375,-2.0322327613830566,0.10681533068418503,0.04299694299697876
105,2024-10-03T10:33:19.235Z,-0.05416775494813919,0.1090683713555336,1.0157718658447266,-0.0146484375,-0.001251220703125,0.004974365234375,-2.0322327613830566,0.10681533068418503,0.04299694299697876
106,2024-10-03T10:33:19.257Z,-0.05416775494813919,0.1090683713555336,1.0157718658447266,0.0042877197265625,0.0024261474609375,-0.002349853515625,-2.0322327613830566,0.10681533068418503,0.04299694299697876
107,2024-10-03T10:33:19.268Z,-0.03904067724943161,0.10809122025966644,1.0235795974731445,0.0042877197265625,0.0024261474609375,-0.002349853515625,-2.0322327613830566,0.10681533068418503,0.04299694299697876
108,2024-10-03T10:33:19.272Z,-0.03904067724943161,0.10809122025966644,1.0235795974731445,0.0042877197265625,0.0024261474609375,-0.002349853515625,-2.0325543880462646,0.10693326592445374,0.04313483089208603
109,2024-10-03T10:33:19.360Z,-0.03904067724943161,0.10809122025966644,1.0235795974731445,0.0085601806640625,0.0012054443359375,-0.002349853515625,-2.0325543880462646,0.10693326592445374,0.04313483089208603
110,2024-10-03T10:33:19.360Z,-0.04514005407691002,0.10931265354156494,1.0260194540023804,0.0085601806640625,0.0012054443359375,-0.002349853515625,-2.0325543880462646,0.10693326592445374,0.04313483089208603
111,2024-10-03T10:33:19.361Z,-0.04514005407691002,0.10931265354156494,1.0260194540023804,0.0042877197265625,0.0005950927734375,-0.001129150390625,-2.0325543880462646,0.10693326592445374,0.04313483089208603
112,2024-10-03T10:33:19.361Z,-0.042456019669771194,0.1100439578294754,1.0206513404846191,0.0042877197265625,0.0005950927734375,-0.001129150390625,-2.0325543880462646,0.10693326592445374,0.04313483089208603
113,2024-10-03T10:33:19.362Z,-0.042456019669771194,0.1100439578294754,1.0206513404846191,-0.0042724609375,-0.001251220703125,0.001312255859375,-2.0325543880462646,0.10693326592445374,0.04313483089208603
114,2024-10-03T10:33:19.362Z,-0.04514005407691002,0.10857979953289032,1.0191887617111206,-0.0042724609375,-0.001251220703125,0.001312255859375,-2.0325543880462646,0.10693326592445374,0.04313483089208603
115,2024-10-03T10:33:19.364Z,-0.04514005407691002,0.10857979953289032,1.0191887617111206,-0.0042724609375,-0.001251220703125,0.001312255859375,-2.033390522003174,0.1068967655301094,0.04315122961997986
116,2024-10-03T10:33:19.364Z,-0.04514005407691002,0.10857979953289032,1.0191887617111206,-0.0042724609375,-0.001251220703125,0.001312255859375,-2.033390522003174,0.1068967655301094,0.04315122961997986
117,2024-10-03T10:33:19.364Z,-0.04514005407691002,0.10857979953289032,1.0191887617111206,-0.0012054443359375,0.0005950927734375,0.000701904296875,-2.033390522003174,0.1068967655301094,0.04315122961997986
118,2024-10-03T10:33:19.364Z,-0.04514005407691002,0.10857979953289032,1.0191887617111206,-0.0012054443359375,0.0005950927734375,0.000701904296875,-2.033390522003174,0.1068967655301094,0.04315122961997986
119,2024-10-03T10:33:19.373Z,-0.0466042160987854,0.10784849524497986,1.018700122833252,-0.0012054443359375,0.0005950927734375,0.000701904296875,-2.033390522003174,0.1068967655301094,0.04315122961997986
120,2024-10-03T10:33:19.390Z,-0.0466042160987854,0.10784849524497986,1.018700122833252,0.0024566650390625,0.0005950927734375,-0.000518798828125,-2.033390522003174,0.1068967655301094,0.04315122961997986
121,2024-10-03T10:33:19.390Z,-0.0466042160987854,0.10784849524497986,1.018700122833252,0.0024566650390625,0.0005950927734375,-0.000518798828125,-2.033557176589966,0.10686322301626205,0.04322764649987221
122,2024-10-03T10:33:19.399Z,-0.03879639133810997,0.10638432949781418,1.0201643705368042,0.0024566650390625,0.0005950927734375,-0.000518798828125,-2.033557176589966,0.10686322301626205,0.04322764649987221
123,2024-10-03T10:33:19.418Z,-0.03879639133810997,0.10638432949781418,1.0201643705368042,0.0055084228515625,0.0024261474609375,-0.001739501953125,-2.033557176589966,0.10686322301626205,0.04322764649987221
124,2024-10-03T10:33:19.425Z,-0.04514005407691002,0.10979966819286346,1.0179673433303833,0.0055084228515625,0.0024261474609375,-0.001739501953125,-2.033557176589966,0.10686322301626205,0.04322764649987221
125,2024-10-03T10:33:19.425Z,-0.04514005407691002,0.10979966819286346,1.0179673433303833,0.0055084228515625,0.0024261474609375,-0.001739501953125,-2.034508466720581,0.10694064944982529,0.0431886650621891
126,2024-10-03T10:33:19.444Z,-0.04514005407691002,0.10979966819286346,1.0179673433303833,0.0036773681640625,-0.000030517578125,-0.000518798828125,-2.034508466720581,0.10694064944982529,0.0431886650621891
127,2024-10-03T10:33:19.451Z,-0.04367589205503464,0.11028824746608734,1.0177245140075684,0.0036773681640625,-0.000030517578125,-0.000518798828125,-2.034508466720581,0.10694064944982529,0.0431886650621891
128,2024-10-03T10:33:19.457Z,-0.04367589205503464,0.11028824746608734,1.0177245140075684,0.0036773681640625,-0.000030517578125,-0.000518798828125,-2.0351943969726562,0.10708962380886078,0.043285075575113297
129,2024-10-03T10:33:19.469Z,-0.04367589205503464,0.11028824746608734,1.0177245140075684,0.0006103515625,0.0005950927734375,-0.000518798828125,-2.0351943969726562,0.10708962380886078,0.043285075575113297
130,2024-10-03T10:33:19.482Z,-0.043431606143713,0.11321656405925751,1.0201643705368042,0.0006103515625,0.0005950927734375,-0.000518798828125,-2.0351943969726562,0.10708962380886078,0.043285075575113297
131,2024-10-03T10:33:19.500Z,-0.043431606143713,0.11321656405925751,1.0201643705368042,0.0000152587890625,-0.001251220703125,0.000091552734375,-2.0351943969726562,0.10708962380886078,0.043285075575113297
132,2024-10-03T10:33:19.501Z,-0.043431606143713,0.11321656405925751,1.0201643705368042,0.0000152587890625,-0.001251220703125,0.000091552734375,-2.035860300064087,0.1071929782629013,0.04324178025126457
133,2024-10-03T10:33:19.511Z,-0.04538433998823166,0.11053252965211868,1.0174802541732788,0.0000152587890625,-0.001251220703125,0.000091552734375,-2.035860300064087,0.1071929782629013,0.04324178025126457
134,2024-10-03T10:33:19.529Z,-0.04538433998823166,0.11053252965211868,1.0174802541732788,0.0000152587890625,-0.001251220703125,0.000091552734375,-2.0369155406951904,0.10719670355319977,0.043331328779459
135,2024-10-03T10:33:19.530Z,-0.04538433998823166,0.11053252965211868,1.0174802541732788,0.0012359619140625,0.0018157958984375,0.000091552734375,-2.0369155406951904,0.10719670355319977,0.043331328779459
136,2024-10-03T10:33:19.538Z,-0.04026055335998535,0.1090683713555336,1.0177245140075684,0.0012359619140625,0.0018157958984375,0.000091552734375,-2.0369155406951904,0.10719670355319977,0.043331328779459
137,2024-10-03T10:33:19.563Z,-0.04026055335998535,0.1090683713555336,1.0177245140075684,0.0018463134765625,0.0018157958984375,0.000091552734375,-2.0369155406951904,0.10719670355319977,0.043331328779459
138,2024-10-03T10:33:19.564Z,-0.04026055335998535,0.1090683713555336,1.0177245140075684,0.0018463134765625,0.0018157958984375,0.000091552734375,-2.0370500087738037,0.1071835309267044,0.043242812156677246
139,2024-10-03T10:33:19.564Z,-0.04684850201010704,0.10833550989627838,1.0189443826675415,0.0018463134765625,0.0018157958984375,0.000091552734375,-2.0370500087738037,0.1071835309267044,0.043242812156677246
140,2024-10-03T10:33:19.596Z,-0.04684850201010704,0.10833550989627838,1.0189443826675415,0.0018463134765625,0.0012054443359375,0.000091552734375,-2.0370500087738037,0.1071835309267044,0.043242812156677246
141,2024-10-03T10:33:19.597Z,-0.04684850201010704,0.10833550989627838,1.0189443826675415,0.0018463134765625,0.0012054443359375,0.000091552734375,-2.0379085540771484,0.10725235939025879,0.04336727783083916
142,2024-10-03T10:33:19.597Z,-0.042456019669771194,0.1068713515996933,1.0201643705368042,0.0018463134765625,0.0012054443359375,0.000091552734375,-2.0379085540771484,0.10725235939025879,0.04336727783083916
143,2024-10-03T10:33:19.622Z,-0.042456019669771194,0.1068713515996933,1.0201643705368042,0.0042877197265625,0.0012054443359375,-0.000518798828125,-2.0379085540771484,0.10725235939025879,0.04336727783083916
144,2024-10-03T10:33:19.623Z,-0.04635993018746376,0.11297228187322617,1.0182116031646729,0.0042877197265625,0.0012054443359375,-0.000518798828125,-2.0379085540771484,0.10725235939025879,0.04336727783083916
145,2024-10-03T10:33:19.630Z,-0.04635993018746376,0.11297228187322617,1.0182116031646729,0.0042877197265625,0.0012054443359375,-0.000518798828125,-2.037858009338379,0.10731766372919083,0.04330461844801903
146,2024-10-03T10:33:19.649Z,-0.04635993018746376,0.11297228187322617,1.0182116031646729,0.0036773681640625,-0.001251220703125,0.000091552734375,-2.037858009338379,0.10731766372919083,0.04330461844801903
147,2024-10-03T10:33:19.649Z,-0.043431606143713,0.11199669539928436,1.0201643705368042,0.0036773681640625,-0.001251220703125,0.000091552734375,-2.037858009338379,0.10731766372919083,0.04330461844801903
148,2024-10-03T10:33:19.664Z,-0.043431606143713,0.11199669539928436,1.0201643705368042,0.0036773681640625,-0.001251220703125,0.000091552734375,-2.038224935531616,0.10754379630088806,0.043382786214351654
149,2024-10-03T10:33:19.681Z,-0.043431606143713,0.11199669539928436,1.0201643705368042,0.0018463134765625,0.0005950927734375,0.001312255859375,-2.038224935531616,0.10754379630088806,0.043382786214351654
150,2024-10-03T10:33:19.681Z,-0.04367589205503464,0.11272799223661423,1.0206513404846191,0.0018463134765625,0.0005950927734375,0.001312255859375,-2.038224935531616,0.10754379630088806,0.043382786214351654
151,2024-10-03T10:33:19.700Z,-0.04367589205503464,0.11272799223661423,1.0206513404846191,0.0018463134765625,0.0005950927734375,0.001312255859375,-2.0386245250701904,0.10768856108188629,0.04338512942194939
152,2024-10-03T10:33:19.707Z,-0.04367589205503464,0.11272799223661423,1.0206513404846191,-0.0006103515625,0.0005950927734375,-0.000518798828125,-2.0386245250701904,0.10768856108188629,0.04338512942194939
153,2024-10-03T10:33:19.714Z,-0.042700305581092834,0.11126383394002914,1.018700122833252,-0.0006103515625,0.0005950927734375,-0.000518798828125,-2.0386245250701904,0.10768856108188629,0.04338512942194939
154,2024-10-03T10:33:19.731Z,-0.042700305581092834,0.11126383394002914,1.018700122833252,-0.0006103515625,0.0005950927734375,-0.000518798828125,-2.039069175720215,0.10775746405124664,0.04338761046528816
155,2024-10-03T10:33:19.734Z,-0.042700305581092834,0.11126383394002914,1.018700122833252,0.0000152587890625,-0.0006256103515625,0.000701904296875,-2.039069175720215,0.10775746405124664,0.04338761046528816
156,2024-10-03T10:33:19.746Z,-0.04538433998823166,0.10955538600683212,1.0201643705368042,0.0000152587890625,-0.0006256103515625,0.000701904296875,-2.039069175720215,0.10775746405124664,0.04338761046528816
157,2024-10-03T10:33:19.764Z,-0.04538433998823166,0.10955538600683212,1.0201643705368042,0.0012359619140625,0.0012054443359375,-0.001739501953125,-2.039069175720215,0.10775746405124664,0.04338761046528816
158,2024-10-03T10:33:19.764Z,-0.04538433998823166,0.10955538600683212,1.0201643705368042,0.0012359619140625,0.0012054443359375,-0.001739501953125,-2.0398929119110107,0.10768383741378784,0.04340346157550812
159,2024-10-03T10:33:19.771Z,-0.04367589205503464,0.11150811612606049,1.0172359943389893,0.0012359619140625,0.0012054443359375,-0.001739501953125,-2.0398929119110107,0.10768383741378784,0.04340346157550812
160,2024-10-03T10:33:19.789Z,-0.04367589205503464,0.11150811612606049,1.0172359943389893,-0.0018310546875,-0.0018463134765625,0.000091552734375,-2.0398929119110107,0.10768383741378784,0.04340346157550812
161,2024-10-03T10:33:19.804Z,-0.04318732023239136,0.10638432949781418,1.0211398601531982,-0.0018310546875,-0.0018463134765625,0.000091552734375,-2.0398929119110107,0.10768383741378784,0.04340346157550812
162,2024-10-03T10:33:19.804Z,-0.04318732023239136,0.10638432949781418,1.0211398601531982,-0.0018310546875,-0.0018463134765625,0.000091552734375,-2.040311813354492,0.1077442392706871,0.043400440365076065
163,2024-10-03T10:33:19.816Z,-0.04318732023239136,0.10638432949781418,1.0211398601531982,0.0042877197265625,0.0012054443359375,-0.002349853515625,-2.040311813354492,0.1077442392706871,0.043400440365076065
164,2024-10-03T10:33:19.827Z,-0.05245930701494217,0.11590060591697693,1.0221154689788818,0.0042877197265625,0.0012054443359375,-0.002349853515625,-2.040311813354492,0.1077442392706871,0.043400440365076065
165,2024-10-03T10:33:19.829Z,-0.05245930701494217,0.11590060591697693,1.0221154689788818,0.0042877197265625,0.0012054443359375,-0.002349853515625,-2.0407230854034424,0.10753960907459259,0.04327945411205292
166,2024-10-03T10:33:19.846Z,-0.05245930701494217,0.11590060591697693,1.0221154689788818,0.0036773681640625,0.0018157958984375,0.000091552734375,-2.0407230854034424,0.10753960907459259,0.04327945411205292
167,2024-10-03T10:33:19.854Z,-0.03904067724943161,0.11028824746608734,1.02626371383667,0.0036773681640625,0.0018157958984375,0.000091552734375,-2.0407230854034424,0.10753960907459259,0.04327945411205292
168,2024-10-03T10:33:19.863Z,-0.03904067724943161,0.11028824746608734,1.02626371383667,0.0036773681640625,0.0018157958984375,0.000091552734375,-2.041050910949707,0.10778545588254929,0.04339282587170601
169,2024-10-03T10:33:19.873Z,-0.03904067724943161,0.11028824746608734,1.02626371383667,-0.0024261474609375,-0.0018463134765625,0.001922607421875,-2.041050910949707,0.10778545588254929,0.04339282587170601
170,2024-10-03T10:33:19.883Z,-0.04538433998823166,0.11077526211738586,1.0167474746704102,-0.0024261474609375,-0.0018463134765625,0.001922607421875,-2.041050910949707,0.10778545588254929,0.04339282587170601
171,2024-10-03T10:33:19.897Z,-0.04538433998823166,0.11077526211738586,1.0167474746704102,-0.0024261474609375,-0.0018463134765625,0.001922607421875,-2.041288137435913,0.1078638806939125,0.04335198178887367
172,2024-10-03T10:33:19.902Z,-0.04538433998823166,0.11077526211738586,1.0167474746704102,-0.0024261474609375,-0.000030517578125,0.001312255859375,-2.041288137435913,0.1078638806939125,0.04335198178887367
173,2024-10-03T10:33:19.911Z,-0.04514005407691002,0.11199669539928436,1.0140633583068848,-0.0024261474609375,-0.000030517578125,0.001312255859375,-2.041288137435913,0.1078638806939125,0.04335198178887367
174,2024-10-03T10:33:19.926Z,-0.04514005407691002,0.11199669539928436,1.0140633583068848,-0.0024261474609375,-0.000030517578125,0.001312255859375,-2.0414915084838867,0.10795717686414719,0.04342738911509514
175,2024-10-03T10:33:19.931Z,-0.04514005407691002,0.11199669539928436,1.0140633583068848,0.0024566650390625,0.0005950927734375,-0.001739501953125,-2.0414915084838867,0.10795717686414719,0.04342738911509514
176,2024-10-03T10:33:19.934Z,-0.042211733758449554,0.1090683713555336,1.0189443826675415,0.0024566650390625,0.0005950927734375,-0.001739501953125,-2.0414915084838867,0.10795717686414719,0.04342738911509514
177,2024-10-03T10:33:19.970Z,-0.04489576816558838,0.11199669539928436,1.0208956003189087,0.0024566650390625,0.0005950927734375,-0.001739501953125,-2.0414915084838867,0.10795717686414719,0.04342738911509514
178,2024-10-03T10:33:19.971Z,-0.04489576816558838,0.11199669539928436,1.0208956003189087,0.0048980712890625,0.0018157958984375,-0.000518798828125,-2.0414915084838867,0.10795717686414719,0.04342738911509514
179,2024-10-03T10:33:19.971Z,-0.04489576816558838,0.11199669539928436,1.0208956003189087,0.0048980712890625,0.0018157958984375,-0.000518798828125,-2.041332960128784,0.10788256675004959,0.04339553788304329
180,2024-10-03T10:33:19.988Z,-0.042700305581092834,0.10955538600683212,1.0182116031646729,0.0048980712890625,0.0018157958984375,-0.000518798828125,-2.041332960128784,0.10788256675004959,0.04339553788304329
181,2024-10-03T10:33:19.988Z,-0.042700305581092834,0.10955538600683212,1.0182116031646729,0.0012359619140625,-0.0006256103515625,-0.000518798828125,-2.041332960128784,0.10788256675004959,0.04339553788304329
182,2024-10-03T10:33:20.002Z,-0.042700305581092834,0.10955538600683212,1.0182116031646729,0.0012359619140625,-0.0006256103515625,-0.000518798828125,-2.041123867034912,0.10786888748407364,0.04341830685734749
183,2024-10-03T10:33:20.016Z,-0.042700305581092834,0.10955538600683212,1.0182116031646729,0.0000152587890625,-0.001251220703125,0.000701904296875,-2.041123867034912,0.10786888748407364,0.04341830685734749
184,2024-10-03T10:33:20.016Z,-0.04367589205503464,0.10979966819286346,1.018700122833252,0.0000152587890625,-0.001251220703125,0.000701904296875,-2.041123867034912,0.10786888748407364,0.04341830685734749
185,2024-10-03T10:33:20.029Z,-0.04367589205503464,0.10979966819286346,1.018700122833252,0.0000152587890625,-0.001251220703125,0.000701904296875,-2.0411646366119385,0.10792690515518188,0.04332619160413742
186,2024-10-03T10:33:20.041Z,-0.04367589205503464,0.10979966819286346,1.018700122833252,0.0012359619140625,-0.000030517578125,-0.000518798828125,-2.0411646366119385,0.10792690515518188,0.04332619160413742
187,2024-10-03T10:33:20.048Z,-0.044408753514289856,0.10857979953289032,1.0201643705368042,0.0012359619140625,-0.000030517578125,-0.000518798828125,-2.0411646366119385,0.10792690515518188,0.04332619160413742
188,2024-10-03T10:33:20.063Z,-0.044408753514289856,0.10857979953289032,1.0201643705368042,0.0012359619140625,-0.000030517578125,-0.000518798828125,-2.041135311126709,0.10801099985837936,0.04339718446135521
189,2024-10-03T10:33:20.068Z,-0.044408753514289856,0.10857979953289032,1.0201643705368042,0.0012359619140625,0.0005950927734375,0.001312255859375,-2.041135311126709,0.10801099985837936,0.04339718446135521
190,2024-10-03T10:33:20.074Z,-0.043431606143713,0.1198045164346695,1.0184558629989624,0.0012359619140625,0.0005950927734375,0.001312255859375,-2.041135311126709,0.10801099985837936,0.04339718446135521
191,2024-10-03T10:33:20.097Z,-0.043431606143713,0.1198045164346695,1.0184558629989624,-0.0018310546875,0.0005950927734375,-0.001739501953125,-2.041135311126709,0.10801099985837936,0.04339718446135521
192,2024-10-03T10:33:20.097Z,-0.043431606143713,0.1198045164346695,1.0184558629989624,-0.0018310546875,0.0005950927734375,-0.001739501953125,-2.0411291122436523,0.10820333659648895,0.04344949871301651
193,2024-10-03T10:33:20.101Z,-0.04001626744866371,0.10101626068353653,1.0169917345046997,-0.0018310546875,0.0005950927734375,-0.001739501953125,-2.0411291122436523,0.10820333659648895,0.04344949871301651
194,2024-10-03T10:33:20.127Z,-0.04001626744866371,0.10101626068353653,1.0169917345046997,-0.0030517578125,0.0012054443359375,-0.001129150390625,-2.0411291122436523,0.10820333659648895,0.04344949871301651
195,2024-10-03T10:33:20.152Z,-0.057340364903211594,0.11345929652452469,1.0191887617111206,-0.0030517578125,0.0012054443359375,-0.001129150390625,-2.0411291122436523,0.10820333659648895,0.04344949871301651
196,2024-10-03T10:33:20.152Z,-0.057340364903211594,0.11345929652452469,1.0191887617111206,0.0018463134765625,0.0018157958984375,-0.003570556640625,-2.0411291122436523,0.10820333659648895,0.04344949871301651
197,2024-10-03T10:33:20.152Z,-0.057340364903211594,0.11345929652452469,1.0191887617111206,0.0018463134765625,0.0018157958984375,-0.003570556640625,-2.040472984313965,0.10795563459396362,0.0435042642056942
198,2024-10-03T10:33:20.160Z,-0.04099185764789581,0.11175240576267242,1.0201643705368042,0.0018463134765625,0.0018157958984375,-0.003570556640625,-2.040472984313965,0.10795563459396362,0.0435042642056942
199,2024-10-03T10:33:20.164Z,-0.04099185764789581,0.11175240576267242,1.0201643705368042,0.0018463134765625,0.0018157958984375,-0.003570556640625,-2.040464162826538,0.10791130363941193,0.04331186041235924
200,2024-10-03T10:33:20.172Z,-0.04099185764789581,0.11175240576267242,1.0201643705368042,-0.008544921875,-0.0018463134765625,0.000091552734375,-2.040464162826538,0.10791130363941193,0.04331186041235924
201,2024-10-03T10:33:20.188Z,-0.04050328582525253,0.10735992342233658,1.0206513404846191,-0.008544921875,-0.0018463134765625,0.000091552734375,-2.040464162826538,0.10791130363941193,0.04331186041235924
202,2024-10-03T10:33:20.202Z,-0.04050328582525253,0.10735992342233658,1.0206513404846191,-0.0048675537109375,0.0005950927734375,0.000701904296875,-2.040464162826538,0.10791130363941193,0.04331186041235924
203,2024-10-03T10:33:20.203Z,-0.04050328582525253,0.10735992342233658,1.0206513404846191,-0.0048675537109375,0.0005950927734375,0.000701904296875,-2.0403096675872803,0.10767974704504013,0.0432974211871624
204,2024-10-03T10:33:20.218Z,-0.04587135836482048,0.11419215798377991,1.0196757316589355,-0.0048675537109375,0.0005950927734375,0.000701904296875,-2.0403096675872803,0.10767974704504013,0.0432974211871624
205,2024-10-03T10:33:20.238Z,-0.04587135836482048,0.11419215798377991,1.0196757316589355,-0.0030517578125,0.0005950927734375,0.000701904296875,-2.0403096675872803,0.10767974704504013,0.0432974211871624
206,2024-10-03T10:33:20.239Z,-0.04587135836482048,0.11419215798377991,1.0196757316589355,-0.0030517578125,0.0005950927734375,0.000701904296875,-2.0397887229919434,0.10769382119178772,0.043382707983255386
207,2024-10-03T10:33:20.240Z,-0.04367589205503464,0.10955538600683212,1.0162603855133057,-0.0030517578125,0.0005950927734375,0.000701904296875,-2.0397887229919434,0.10769382119178772,0.043382707983255386
208,2024-10-03T10:33:20.257Z,-0.04367589205503464,0.10955538600683212,1.0162603855133057,-0.0036468505859375,0.0005950927734375,0.000091552734375,-2.0397887229919434,0.10769382119178772,0.043382707983255386
209,2024-10-03T10:33:20.264Z,-0.04367589205503464,0.10955538600683212,1.0162603855133057,-0.0036468505859375,0.0005950927734375,0.000091552734375,-2.0398142337799072,0.10757841169834137,0.04331919550895691
210,2024-10-03T10:33:20.267Z,-0.04831266403198242,0.11077526211738586,1.0204086303710938,-0.0036468505859375,0.0005950927734375,0.000091552734375,-2.0398142337799072,0.10757841169834137,0.04331919550895691
211,2024-10-03T10:33:20.326Z,-0.04831266403198242,0.11077526211738586,1.0204086303710938,-0.0006103515625,-0.000030517578125,-0.000518798828125,-2.0398142337799072,0.10757841169834137,0.04331919550895691
212,2024-10-03T10:33:20.326Z,-0.03879639133810997,0.10979966819286346,1.0169917345046997,-0.0006103515625,-0.000030517578125,-0.000518798828125,-2.0398142337799072,0.10757841169834137,0.04331919550895691
213,2024-10-03T10:33:20.327Z,-0.03879639133810997,0.10979966819286346,1.0169917345046997,-0.0036468505859375,-0.000030517578125,0.000701904296875,-2.0398142337799072,0.10757841169834137,0.04331919550895691
214,2024-10-03T10:33:20.327Z,-0.04489576816558838,0.11150811612606049,1.018700122833252,-0.0036468505859375,-0.000030517578125,0.000701904296875,-2.0398142337799072,0.10757841169834137,0.04331919550895691
215,2024-10-03T10:33:20.328Z,-0.04489576816558838,0.11150811612606049,1.018700122833252,-0.0036468505859375,-0.000030517578125,0.000701904296875,-2.0393805503845215,0.10732046514749527,0.043319351971149445
216,2024-10-03T10:33:20.328Z,-0.04489576816558838,0.11150811612606049,1.018700122833252,-0.0036468505859375,-0.000030517578125,0.000701904296875,-2.0393805503845215,0.10732046514749527,0.043319351971149445
217,2024-10-03T10:33:20.336Z,-0.04489576816558838,0.11150811612606049,1.018700122833252,-0.0018310546875,-0.000030517578125,0.000091552734375,-2.0393805503845215,0.10732046514749527,0.043319351971149445
218,2024-10-03T10:33:20.348Z,-0.044164467602968216,0.10931265354156494,1.0184558629989624,-0.0018310546875,-0.000030517578125,0.000091552734375,-2.0393805503845215,0.10732046514749527,0.043319351971149445
219,2024-10-03T10:33:20.363Z,-0.044164467602968216,0.10931265354156494,1.0184558629989624,-0.0018310546875,-0.000030517578125,0.000091552734375,-2.0390069484710693,0.10717347264289856,0.04338161647319794
220,2024-10-03T10:33:20.365Z,-0.044164467602968216,0.10931265354156494,1.0184558629989624,-0.0012054443359375,0.0005950927734375,-0.000518798828125,-2.0390069484710693,0.10717347264289856,0.04338161647319794
221,2024-10-03T10:33:20.373Z,-0.043431606143713,0.10809122025966644,1.0177245140075684,-0.0012054443359375,0.0005950927734375,-0.000518798828125,-2.0390069484710693,0.10717347264289856,0.04338161647319794
222,2024-10-03T10:33:20.395Z,-0.043431606143713,0.10809122025966644,1.0177245140075684,-0.0018310546875,-0.0006256103515625,-0.001129150390625,-2.0390069484710693,0.10717347264289856,0.04338161647319794
223,2024-10-03T10:33:20.395Z,-0.043431606143713,0.10809122025966644,1.0177245140075684,-0.0018310546875,-0.0006256103515625,-0.001129150390625,-2.0393223762512207,0.10713750869035721,0.04332054778933525
224,2024-10-03T10:33:20.399Z,-0.04684850201010704,0.11077526211738586,1.0174802541732788,-0.0018310546875,-0.0006256103515625,-0.001129150390625,-2.0393223762512207,0.10713750869035721,0.04332054778933525
225,2024-10-03T10:33:20.419Z,-0.04684850201010704,0.11077526211738586,1.0174802541732788,-0.0018310546875,0.0012054443359375,0.000091552734375,-2.0393223762512207,0.10713750869035721,0.04332054778933525
226,2024-10-03T10:33:20.431Z,-0.04684850201010704,0.11077526211738586,1.0174802541732788,-0.0018310546875,0.0012054443359375,0.000091552734375,-2.0393147468566895,0.10709173232316971,0.043447498232126236
227,2024-10-03T10:33:20.432Z,-0.04611564427614212,0.10614004731178284,1.021628499031067,-0.0018310546875,0.0012054443359375,0.000091552734375,-2.0393147468566895,0.10709173232316971,0.043447498232126236
228,2024-10-03T10:33:20.447Z,-0.04611564427614212,0.10614004731178284,1.021628499031067,-0.0012054443359375,-0.0018463134765625,0.001312255859375,-2.0393147468566895,0.10709173232316971,0.043447498232126236
229,2024-10-03T10:33:20.457Z,-0.04587135836482048,0.11394786834716797,1.0184558629989624,-0.0012054443359375,-0.0018463134765625,0.001312255859375,-2.0393147468566895,0.10709173232316971,0.043447498232126236
230,2024-10-03T10:33:20.466Z,-0.04587135836482048,0.11394786834716797,1.0184558629989624,-0.0012054443359375,-0.0018463134765625,0.001312255859375,-2.0388846397399902,0.10706344246864319,0.04339800775051117
231,2024-10-03T10:33:20.474Z,-0.04587135836482048,0.11394786834716797,1.0184558629989624,-0.0012054443359375,0.0012054443359375,-0.000518798828125,-2.0388846397399902,0.10706344246864319,0.04339800775051117
232,2024-10-03T10:33:20.487Z,-0.043920181691646576,0.10784849524497986,1.0211398601531982,-0.0012054443359375,0.0012054443359375,-0.000518798828125,-2.0388846397399902,0.10706344246864319,0.04339800775051117
233,2024-10-03T10:33:20.500Z,-0.043920181691646576,0.10784849524497986,1.0211398601531982,-0.0012054443359375,0.0012054443359375,-0.000518798828125,-2.038857936859131,0.10699119418859482,0.04333497956395149
234,2024-10-03T10:33:20.511Z,-0.043920181691646576,0.10784849524497986,1.0211398601531982,-0.0030517578125,0.0005950927734375,-0.000518798828125,-2.038857936859131,0.10699119418859482,0.04333497956395149
235,2024-10-03T10:33:20.518Z,-0.041967444121837616,0.10979966819286346,1.0157718658447266,-0.0030517578125,0.0005950927734375,-0.000518798828125,-2.038857936859131,0.10699119418859482,0.04333497956395149
236,2024-10-03T10:33:20.532Z,-0.041967444121837616,0.10979966819286346,1.0157718658447266,-0.0012054443359375,0.0012054443359375,-0.001129150390625,-2.038857936859131,0.10699119418859482,0.04333497956395149
237,2024-10-03T10:33:20.532Z,-0.041967444121837616,0.10979966819286346,1.0157718658447266,-0.0012054443359375,0.0012054443359375,-0.001129150390625,-2.038830041885376,0.10694795846939087,0.04330635815858841
238,2024-10-03T10:33:20.544Z,-0.04465148225426674,0.10882408171892166,1.0206513404846191,-0.0012054443359375,0.0012054443359375,-0.001129150390625,-2.038830041885376,0.10694795846939087,0.04330635815858841
239,2024-10-03T10:33:20.556Z,-0.04465148225426674,0.10882408171892166,1.0206513404846191,-0.0018310546875,-0.001251220703125,0.000091552734375,-2.038830041885376,0.10694795846939087,0.04330635815858841
240,2024-10-03T10:33:20.564Z,-0.04465148225426674,0.10882408171892166,1.0206513404846191,-0.0018310546875,-0.001251220703125,0.000091552734375,-2.0387673377990723,0.10684137046337128,0.043319810181856155
241,2024-10-03T10:33:20.571Z,-0.03245272859930992,0.0880846455693245,1.0535926818847656,-0.0018310546875,-0.001251220703125,0.000091552734375,-2.0387673377990723,0.10684137046337128,0.043319810181856155
242,2024-10-03T10:33:20.583Z,-0.03245272859930992,0.0880846455693245,1.0535926818847656,0.0048980712890625,0.0005950927734375,-0.003570556640625,-2.0387673377990723,0.10684137046337128,0.043319810181856155
243,2024-10-03T10:33:20.597Z,-0.03245272859930992,0.0880846455693245,1.0535926818847656,0.0048980712890625,0.0005950927734375,-0.003570556640625,-2.0385119915008545,0.10680333524942398,0.043344028294086456
244,2024-10-03T10:33:20.597Z,-0.03537949547171593,0.10540874302387238,1.0052800178527832,0.0048980712890625,0.0005950927734375,-0.003570556640625,-2.0385119915008545,0.10680333524942398,0.043344028294086456
245,2024-10-03T10:33:20.612Z,-0.03537949547171593,0.10540874302387238,1.0052800178527832,0.0152740478515625,0.0060882568359375,-0.007843017578125,-2.0385119915008545,0.10680333524942398,0.043344028294086456
246,2024-10-03T10:33:20.624Z,-0.050996702164411545,0.11468072980642319,1.0123565196990967,0.0152740478515625,0.0060882568359375,-0.007843017578125,-2.0385119915008545,0.10680333524942398,0.043344028294086456
247,2024-10-03T10:33:20.630Z,-0.050996702164411545,0.11468072980642319,1.0123565196990967,0.0152740478515625,0.0060882568359375,-0.007843017578125,-2.038151264190674,0.10690312832593918,0.04326801374554634
248,2024-10-03T10:33:20.636Z,-0.050996702164411545,0.11468072980642319,1.0123565196990967,0.0073394775390625,0.0018157958984375,-0.006011962890625,-2.038151264190674,0.10690312832593918,0.04326801374554634
249,2024-10-03T10:33:20.654Z,-0.03659937158226967,0.11736476421356201,1.0260194540023804,0.0073394775390625,0.0018157958984375,-0.006011962890625,-2.038151264190674,0.10690312832593918,0.04326801374554634
250,2024-10-03T10:33:20.666Z,-0.03659937158226967,0.11736476421356201,1.0260194540023804,0.0073394775390625,0.0018157958984375,-0.006011962890625,-2.0375678539276123,0.1066913828253746,0.04323318973183632
251,2024-10-03T10:33:20.671Z,-0.03659937158226967,0.11736476421356201,1.0260194540023804,-0.009765625,-0.0042877197265625,0.003753662109375,-2.0375678539276123,0.1066913828253746,0.04323318973183632
252,2024-10-03T10:33:20.684Z,-0.04172471538186073,0.10711563378572464,1.0189443826675415,-0.009765625,-0.0042877197265625,0.003753662109375,-2.0375678539276123,0.1066913828253746,0.04323318973183632
253,2024-10-03T10:33:20.699Z,-0.04172471538186073,0.10711563378572464,1.0189443826675415,-0.009765625,-0.0030670166015625,0.000701904296875,-2.0375678539276123,0.1066913828253746,0.04323318973183632
254,2024-10-03T10:33:20.699Z,-0.04172471538186073,0.10711563378572464,1.0189443826675415,-0.009765625,-0.0030670166015625,0.000701904296875,-2.0376391410827637,0.10671623796224594,0.04325762018561363
255,2024-10-03T10:33:20.712Z,-0.042700305581092834,0.11028824746608734,1.0208956003189087,-0.009765625,-0.0030670166015625,0.000701904296875,-2.0376391410827637,0.10671623796224594,0.04325762018561363
256,2024-10-03T10:33:20.725Z,-0.042700305581092834,0.11028824746608734,1.0208956003189087,-0.0054931640625,-0.000030517578125,0.001312255859375,-2.0376391410827637,0.10671623796224594,0.04325762018561363
257,2024-10-03T10:33:20.737Z,-0.04514005407691002,0.10467588156461716,1.0167474746704102,-0.0054931640625,-0.000030517578125,0.001312255859375,-2.0376391410827637,0.10671623796224594,0.04325762018561363
258,2024-10-03T10:33:20.738Z,-0.04514005407691002,0.10467588156461716,1.0167474746704102,-0.0054931640625,-0.000030517578125,0.001312255859375,-2.0384325981140137,0.10657399892807007,0.04324245825409889
259,2024-10-03T10:33:20.752Z,-0.04514005407691002,0.10467588156461716,1.0167474746704102,0.0000152587890625,-0.000030517578125,0.000701904296875,-2.0384325981140137,0.10657399892807007,0.04324245825409889
260,2024-10-03T10:33:20.764Z,-0.04514005407691002,0.10467588156461716,1.0167474746704102,0.0000152587890625,-0.000030517578125,0.000701904296875,-2.0387792587280273,0.1065065786242485,0.043276116251945496
261,2024-10-03T10:33:20.764Z,-0.04538433998823166,0.10784849524497986,1.0189443826675415,0.0000152587890625,-0.000030517578125,0.000701904296875,-2.0387792587280273,0.1065065786242485,0.043276116251945496
262,2024-10-03T10:33:20.780Z,-0.04538433998823166,0.10784849524497986,1.0189443826675415,0.0000152587890625,0.0018157958984375,0.000701904296875,-2.0387792587280273,0.1065065786242485,0.043276116251945496
263,2024-10-03T10:33:20.791Z,-0.041967444121837616,0.10784849524497986,1.0206513404846191,0.0000152587890625,0.0018157958984375,0.000701904296875,-2.0387792587280273,0.1065065786242485,0.043276116251945496
264,2024-10-03T10:33:20.798Z,-0.041967444121837616,0.10784849524497986,1.0206513404846191,0.0000152587890625,0.0018157958984375,0.000701904296875,-2.039276361465454,0.10645430535078049,0.043195273727178574
265,2024-10-03T10:33:20.805Z,-0.041967444121837616,0.10784849524497986,1.0206513404846191,0.0018463134765625,0.0005950927734375,0.000091552734375,-2.039276361465454,0.10645430535078049,0.043195273727178574
266,2024-10-03T10:33:20.817Z,-0.0466042160987854,0.11077526211738586,1.0208956003189087,0.0018463134765625,0.0005950927734375,0.000091552734375,-2.039276361465454,0.10645430535078049,0.043195273727178574
267,2024-10-03T10:33:20.829Z,-0.0466042160987854,0.11077526211738586,1.0208956003189087,0.0018463134765625,0.0005950927734375,0.000091552734375,-2.0396316051483154,0.1065959557890892,0.04329654201865196
268,2024-10-03T10:33:20.832Z,-0.0466042160987854,0.11077526211738586,1.0208956003189087,0.0012359619140625,-0.000030517578125,-0.000518798828125,-2.0396316051483154,0.1065959557890892,0.04329654201865196
269,2024-10-03T10:33:20.849Z,-0.04074757173657417,0.11028824746608734,1.0184558629989624,0.0012359619140625,-0.000030517578125,-0.000518798828125,-2.0396316051483154,0.1065959557890892,0.04329654201865196
270,2024-10-03T10:33:20.859Z,-0.04074757173657417,0.11028824746608734,1.0184558629989624,0.0006103515625,0.0018157958984375,0.000091552734375,-2.0396316051483154,0.1065959557890892,0.04329654201865196
271,2024-10-03T10:33:20.863Z,-0.04074757173657417,0.11028824746608734,1.0184558629989624,0.0006103515625,0.0018157958984375,0.000091552734375,-2.040475368499756,0.10661453753709793,0.04327024891972542
272,2024-10-03T10:33:20.876Z,-0.04489576816558838,0.10931265354156494,1.0189443826675415,0.0006103515625,0.0018157958984375,0.000091552734375,-2.040475368499756,0.10661453753709793,0.04327024891972542
273,2024-10-03T10:33:20.886Z,-0.04489576816558838,0.10931265354156494,1.0189443826675415,0.0012359619140625,-0.000030517578125,0.000091552734375,-2.040475368499756,0.10661453753709793,0.04327024891972542
274,2024-10-03T10:33:20.898Z,-0.04489576816558838,0.10931265354156494,1.0189443826675415,0.0012359619140625,-0.000030517578125,0.000091552734375,-2.0404770374298096,0.10655979812145233,0.04335573688149452
275,2024-10-03T10:33:20.903Z,-0.04733552038669586,0.10443159937858582,1.0206513404846191,0.0012359619140625,-0.000030517578125,0.000091552734375,-2.0404770374298096,0.10655979812145233,0.04335573688149452
276,2024-10-03T10:33:20.911Z,-0.04733552038669586,0.10443159937858582,1.0206513404846191,-0.0036468505859375,-0.001251220703125,0.002532958984375,-2.0404770374298096,0.10655979812145233,0.04335573688149452
277,2024-10-03T10:33:20.934Z,-0.04733552038669586,0.10443159937858582,1.0206513404846191,-0.0036468505859375,-0.001251220703125,0.002532958984375,-2.0405774116516113,0.10666380077600479,0.04343453049659729
278,2024-10-03T10:33:20.935Z,-0.02415633201599121,0.10638432949781418,0.9984477162361145,-0.0036468505859375,-0.001251220703125,0.002532958984375,-2.0405774116516113,0.10666380077600479,0.04343453049659729
279,2024-10-03T10:33:20.939Z,-0.02415633201599121,0.10638432949781418,0.9984477162361145,0.0073394775390625,0.0005950927734375,-0.003570556640625,-2.0405774116516113,0.10666380077600479,0.04343453049659729
280,2024-10-03T10:33:20.966Z,-0.02415633201599121,0.10638432949781418,0.9984477162361145,-0.015869140625,-0.004913330078125,0.0055999755859375,-2.0405774116516113,0.10666380077600479,0.04343453049659729
281,2024-10-03T10:33:20.966Z,-0.02415633201599121,0.10638432949781418,0.9984477162361145,-0.015869140625,-0.004913330078125,0.0055999755859375,-2.0405468940734863,0.10671855509281158,0.04328235238790512
282,2024-10-03T10:33:20.967Z,-0.049775268882513046,0.09906352311372757,1.007964015007019,-0.015869140625,-0.004913330078125,0.0055999755859375,-2.0405468940734863,0.10671855509281158,0.04328235238790512
283,2024-10-03T10:33:20.992Z,-0.04465148225426674,0.10614004731178284,1.0172359943389893,-0.015869140625,-0.004913330078125,0.0055999755859375,-2.0405468940734863,0.10671855509281158,0.04328235238790512
284,2024-10-03T10:33:20.993Z,-0.04465148225426674,0.10614004731178284,1.0172359943389893,-0.0073089599609375,-0.0042877197265625,0.002532958984375,-2.0405468940734863,0.10671855509281158,0.04328235238790512
285,2024-10-03T10:33:20.999Z,-0.04465148225426674,0.10614004731178284,1.0172359943389893,-0.0073089599609375,-0.0042877197265625,0.002532958984375,-2.0404322147369385,0.1065521240234375,0.043262675404548645
286,2024-10-03T10:33:21.022Z,-0.042944591492414474,0.11541203409433365,1.0208956003189087,-0.0073089599609375,-0.0042877197265625,0.002532958984375,-2.0404322147369385,0.1065521240234375,0.043262675404548645
287,2024-10-03T10:33:21.023Z,-0.042944591492414474,0.11541203409433365,1.0208956003189087,0.0024566650390625,0.0012054443359375,-0.002349853515625,-2.0404322147369385,0.1065521240234375,0.043262675404548645
288,2024-10-03T10:33:21.033Z,-0.042944591492414474,0.11541203409433365,1.0208956003189087,0.0024566650390625,0.0012054443359375,-0.002349853515625,-2.0404844284057617,0.10664884746074677,0.04324039816856384
289,2024-10-03T10:33:21.050Z,-0.042944591492414474,0.11541203409433365,1.0208956003189087,0.0067291259765625,0.0030364990234375,-0.003570556640625,-2.0404844284057617,0.10664884746074677,0.04324039816856384
290,2024-10-03T10:33:21.050Z,-0.042211733758449554,0.11370358616113663,1.0189443826675415,0.0067291259765625,0.0030364990234375,-0.003570556640625,-2.0404844284057617,0.10664884746074677,0.04324039816856384
291,2024-10-03T10:33:21.066Z,-0.042211733758449554,0.11370358616113663,1.0189443826675415,0.0067291259765625,0.0030364990234375,-0.003570556640625,-2.0405330657958984,0.10665567964315414,0.04334370419383049
292,2024-10-03T10:33:21.078Z,-0.04538433998823166,0.1100439578294754,1.021628499031067,0.0067291259765625,0.0030364990234375,-0.003570556640625,-2.0405330657958984,0.10665567964315414,0.04334370419383049
293,2024-10-03T10:33:21.080Z,-0.04538433998823166,0.1100439578294754,1.021628499031067,0.0030670166015625,-0.000030517578125,-0.001739501953125,-2.0405330657958984,0.10665567964315414,0.04334370419383049
294,2024-10-03T10:33:21.098Z,-0.04538433998823166,0.1100439578294754,1.021628499031067,0.0030670166015625,-0.000030517578125,-0.001739501953125,-2.040552854537964,0.1066746786236763,0.04336152598261833
295,2024-10-03T10:33:21.103Z,-0.04709123447537422,0.10784849524497986,1.0218727588653564,0.0030670166015625,-0.000030517578125,-0.001739501953125,-2.040552854537964,0.1066746786236763,0.04336152598261833
296,2024-10-03T10:33:21.107Z,-0.04709123447537422,0.10784849524497986,1.0218727588653564,0.0018463134765625,0.0012054443359375,-0.001739501953125,-2.040552854537964,0.1066746786236763,0.04336152598261833
297,2024-10-03T10:33:21.129Z,-0.04709123447537422,0.10784849524497986,1.0218727588653564,0.0018463134765625,0.0012054443359375,-0.001739501953125,-2.0405187606811523,0.10662191361188889,0.04336075484752655
298,2024-10-03T10:33:21.133Z,-0.04026055335998535,0.10809122025966644,1.019431471824646,0.0018463134765625,0.0012054443359375,-0.001739501953125,-2.0405187606811523,0.10662191361188889,0.04336075484752655
299,2024-10-03T10:33:21.134Z,-0.04026055335998535,0.10809122025966644,1.019431471824646,0.0024566650390625,0.0005950927734375,-0.001739501953125,-2.0405187606811523,0.10662191361188889,0.04336075484752655
300,2024-10-03T10:33:21.159Z,-0.04367589205503464,0.10882408171892166,1.0208956003189087,0.0024566650390625,0.0005950927734375,-0.001739501953125,-2.0405187606811523,0.10662191361188889,0.04336075484752655
301,2024-10-03T10:33:21.160Z,-0.04367589205503464,0.10882408171892166,1.0208956003189087,0.0036773681640625,0.0018157958984375,0.000091552734375,-2.0405187606811523,0.10662191361188889,0.04336075484752655
302,2024-10-03T10:33:21.163Z,-0.04367589205503464,0.10882408171892166,1.0208956003189087,0.0036773681640625,0.0018157958984375,0.000091552734375,-2.0405526161193848,0.10668352246284485,0.043347232043743134
303,2024-10-03T10:33:21.192Z,-0.04367589205503464,0.10882408171892166,1.0208956003189087,-0.0036468505859375,-0.0018463134765625,0.000701904296875,-2.0405526161193848,0.10668352246284485,0.043347232043743134
304,2024-10-03T10:33:21.193Z,-0.04514005407691002,0.10809122025966644,1.0179673433303833,-0.0036468505859375,-0.0018463134765625,0.000701904296875,-2.0405526161193848,0.10668352246284485,0.043347232043743134
305,2024-10-03T10:33:21.201Z,-0.04514005407691002,0.10809122025966644,1.0179673433303833,-0.0036468505859375,-0.0018463134765625,0.000701904296875,-2.040548801422119,0.10666633397340775,0.04336443170905113
306,2024-10-03T10:33:21.219Z,-0.04514005407691002,0.10809122025966644,1.0179673433303833,0.0012359619140625,0.0005950927734375,-0.000518798828125,-2.040548801422119,0.10666633397340775,0.04336443170905113
307,2024-10-03T10:33:21.219Z,-0.044164467602968216,0.10760420560836792,1.0213842391967773,0.0012359619140625,0.0005950927734375,-0.000518798828125,-2.040548801422119,0.10666633397340775,0.04336443170905113
308,2024-10-03T10:33:21.232Z,-0.044164467602968216,0.10760420560836792,1.0213842391967773,0.0012359619140625,0.0005950927734375,-0.000518798828125,-2.040534257888794,0.10665210336446762,0.04335164651274681
309,2024-10-03T10:33:21.248Z,-0.04611564427614212,0.11077526211738586,1.0184558629989624,0.0012359619140625,0.0005950927734375,-0.000518798828125,-2.040534257888794,0.10665210336446762,0.04335164651274681
310,2024-10-03T10:33:21.249Z,-0.04611564427614212,0.11077526211738586,1.0184558629989624,0.0012359619140625,0.0005950927734375,0.000091552734375,-2.040534257888794,0.10665210336446762,0.04335164651274681
311,2024-10-03T10:33:21.271Z,-0.04611564427614212,0.11077526211738586,1.0184558629989624,0.0012359619140625,0.0005950927734375,0.000091552734375,-2.0405831336975098,0.10665836185216904,0.04345600679516792
312,2024-10-03T10:33:21.275Z,-0.04611564427614212,0.11077526211738586,1.0184558629989624,-0.0006103515625,-0.000030517578125,-0.000518798828125,-2.0405831336975098,0.10665836185216904,0.04345600679516792
313,2024-10-03T10:33:21.276Z,-0.04099185764789581,0.1068713515996933,1.0208956003189087,-0.0006103515625,-0.000030517578125,-0.000518798828125,-2.0405831336975098,0.10665836185216904,0.04345600679516792
314,2024-10-03T10:33:21.342Z,-0.04099185764789581,0.1068713515996933,1.0208956003189087,0.0000152587890625,0.0018157958984375,0.000091552734375,-2.0405831336975098,0.10665836185216904,0.04345600679516792
315,2024-10-03T10:33:21.342Z,-0.04782409220933914,0.11321656405925751,1.0182116031646729,0.0000152587890625,0.0018157958984375,0.000091552734375,-2.0405831336975098,0.10665836185216904,0.04345600679516792
316,2024-10-03T10:33:21.343Z,-0.04782409220933914,0.11321656405925751,1.0182116031646729,0.0018463134765625,-0.000030517578125,0.000091552734375,-2.0405831336975098,0.10665836185216904,0.04345600679516792
317,2024-10-03T10:33:21.343Z,-0.04123614355921745,0.10809122025966644,1.0189443826675415,0.0018463134765625,-0.000030517578125,0.000091552734375,-2.0405831336975098,0.10665836185216904,0.04345600679516792
318,2024-10-03T10:33:21.343Z,-0.04123614355921745,0.10809122025966644,1.0189443826675415,0.0018463134765625,-0.000030517578125,0.000091552734375,-2.0405704975128174,0.10667359828948975,0.04340376332402229
319,2024-10-03T10:33:21.343Z,-0.04123614355921745,0.10809122025966644,1.0189443826675415,0.0018463134765625,-0.000030517578125,0.000091552734375,-2.0405704975128174,0.10667359828948975,0.04340376332402229
320,2024-10-03T10:33:21.360Z,-0.04123614355921745,0.10809122025966644,1.0189443826675415,-0.0012054443359375,0.0012054443359375,-0.000518798828125,-2.0405704975128174,0.10667359828948975,0.04340376332402229
321,2024-10-03T10:33:21.360Z,-0.0456286258995533,0.11175240576267242,1.0213842391967773,-0.0012054443359375,0.0012054443359375,-0.000518798828125,-2.0405704975128174,0.10667359828948975,0.04340376332402229
322,2024-10-03T10:33:21.363Z,-0.0456286258995533,0.11175240576267242,1.0213842391967773,-0.0012054443359375,0.0012054443359375,-0.000518798828125,-2.0406415462493896,0.10674508661031723,0.04346316680312157
323,2024-10-03T10:33:21.387Z,-0.042456019669771194,0.10638432949781418,1.0211398601531982,-0.0012054443359375,0.0012054443359375,-0.000518798828125,-2.0406415462493896,0.10674508661031723,0.04346316680312157
324,2024-10-03T10:33:21.387Z,-0.042456019669771194,0.10638432949781418,1.0211398601531982,-0.0006103515625,-0.0006256103515625,-0.000518798828125,-2.0406415462493896,0.10674508661031723,0.04346316680312157
325,2024-10-03T10:33:21.398Z,-0.042456019669771194,0.10638432949781418,1.0211398601531982,-0.0006103515625,-0.0006256103515625,-0.000518798828125,-2.0406382083892822,0.1067279577255249,0.0434805303812027
326,2024-10-03T10:33:21.415Z,-0.042456019669771194,0.10638432949781418,1.0211398601531982,0.0048980712890625,0.0005950927734375,0.000701904296875,-2.0406382083892822,0.1067279577255249,0.0434805303812027
327,2024-10-03T10:33:21.415Z,-0.042700305581092834,0.10760420560836792,1.0211398601531982,0.0048980712890625,0.0005950927734375,0.000701904296875,-2.0406382083892822,0.1067279577255249,0.0434805303812027
328,2024-10-03T10:33:21.430Z,-0.042700305581092834,0.10760420560836792,1.0211398601531982,0.0048980712890625,0.0005950927734375,0.000701904296875,-2.0406978130340576,0.10683225095272064,0.043463993817567825
329,2024-10-03T10:33:21.440Z,-0.04318732023239136,0.11272799223661423,1.018700122833252,0.0048980712890625,0.0005950927734375,0.000701904296875,-2.0406978130340576,0.10683225095272064,0.043463993817567825
330,2024-10-03T10:33:21.441Z,-0.04318732023239136,0.11272799223661423,1.018700122833252,0.0030670166015625,0.0024261474609375,0.000091552734375,-2.0406978130340576,0.10683225095272064,0.043463993817567825
331,2024-10-03T10:33:21.466Z,-0.04318732023239136,0.11272799223661423,1.018700122833252,0.0030670166015625,0.0024261474609375,0.000091552734375,-2.040811777114868,0.10698666423559189,0.04349975287914276
332,2024-10-03T10:33:21.469Z,-0.04318732023239136,0.11272799223661423,1.018700122833252,-0.0024261474609375,-0.001251220703125,-0.000518798828125,-2.040811777114868,0.10698666423559189,0.04349975287914276
333,2024-10-03T10:33:21.470Z,-0.04611564427614212,0.10979966819286346,1.0226041078567505,-0.0024261474609375,-0.001251220703125,-0.000518798828125,-2.040811777114868,0.10698666423559189,0.04349975287914276
334,2024-10-03T10:33:21.494Z,-0.04465148225426674,0.1090683713555336,1.0165046453475952,-0.0024261474609375,-0.001251220703125,-0.000518798828125,-2.040811777114868,0.10698666423559189,0.04349975287914276
335,2024-10-03T10:33:21.495Z,-0.04465148225426674,0.1090683713555336,1.0165046453475952,0.0000152587890625,0.0018157958984375,0.000701904296875,-2.040811777114868,0.10698666423559189,0.04349975287914276
336,2024-10-03T10:33:21.501Z,-0.04465148225426674,0.1090683713555336,1.0165046453475952,0.0000152587890625,0.0018157958984375,0.000701904296875,-2.040785789489746,0.10690359771251678,0.04356294870376587
337,2024-10-03T10:33:21.525Z,-0.04465148225426674,0.1090683713555336,1.0165046453475952,0.0018463134765625,0.0018157958984375,-0.001129150390625,-2.040785789489746,0.10690359771251678,0.04356294870376587
338,2024-10-03T10:33:21.525Z,-0.042944591492414474,0.1090683713555336,1.0218727588653564,0.0018463134765625,0.0018157958984375,-0.001129150390625,-2.040785789489746,0.10690359771251678,0.04356294870376587
339,2024-10-03T10:33:21.539Z,-0.042944591492414474,0.1090683713555336,1.0218727588653564,0.0018463134765625,0.0018157958984375,-0.001129150390625,-2.040764093399048,0.10689279437065125,0.04352840036153793
340,2024-10-03T10:33:21.551Z,-0.042944591492414474,0.1090683713555336,1.0218727588653564,-0.0018310546875,0.0018157958984375,0.000091552734375,-2.040764093399048,0.10689279437065125,0.04352840036153793
341,2024-10-03T10:33:21.553Z,-0.04172471538186073,0.11028824746608734,1.0201643705368042,-0.0018310546875,0.0018157958984375,0.000091552734375,-2.040764093399048,0.10689279437065125,0.04352840036153793
342,2024-10-03T10:33:21.568Z,-0.04172471538186073,0.11028824746608734,1.0201643705368042,-0.0018310546875,0.0018157958984375,0.000091552734375,-2.040816068649292,0.10695087909698486,0.04356267675757408
343,2024-10-03T10:33:21.577Z,-0.04172471538186073,0.11028824746608734,1.0201643705368042,0.0024566650390625,0.0005950927734375,-0.001739501953125,-2.040816068649292,0.10695087909698486,0.04356267675757408
344,2024-10-03T10:33:21.580Z,-0.043431606143713,0.10882408171892166,1.0221154689788818,0.0024566650390625,0.0005950927734375,-0.001739501953125,-2.040816068649292,0.10695087909698486,0.04356267675757408
345,2024-10-03T10:33:21.600Z,-0.043431606143713,0.10882408171892166,1.0221154689788818,0.0024566650390625,0.0005950927734375,-0.001739501953125,-2.040830135345459,0.10698657482862473,0.043542902916669846
346,2024-10-03T10:33:21.606Z,-0.043431606143713,0.10882408171892166,1.0221154689788818,0.0012359619140625,0.0005950927734375,0.000701904296875,-2.040830135345459,0.10698657482862473,0.043542902916669846
347,2024-10-03T10:33:21.608Z,-0.04172471538186073,0.11077526211738586,1.0191887617111206,0.0012359619140625,0.0005950927734375,0.000701904296875,-2.040830135345459,0.10698657482862473,0.043542902916669846
348,2024-10-03T10:33:21.642Z,-0.04172471538186073,0.11077526211738586,1.0191887617111206,0.0012359619140625,0.0005950927734375,0.000701904296875,-2.040924072265625,0.10712748765945435,0.04355156421661377
349,2024-10-03T10:33:21.643Z,-0.04172471538186073,0.11077526211738586,1.0191887617111206,0.0024566650390625,-0.0006256103515625,-0.000518798828125,-2.040924072265625,0.10712748765945435,0.04355156421661377
350,2024-10-03T10:33:21.646Z,-0.04489576816558838,0.11223942041397095,1.0179673433303833,0.0024566650390625,-0.0006256103515625,-0.000518798828125,-2.040924072265625,0.10712748765945435,0.04355156421661377
351,2024-10-03T10:33:21.675Z,-0.04489576816558838,0.11223942041397095,1.0179673433303833,0.0024566650390625,-0.0006256103515625,-0.000518798828125,-2.040952205657959,0.10714490711688995,0.04359119012951851
352,2024-10-03T10:33:21.676Z,-0.04465148225426674,0.10614004731178284,1.0191887617111206,0.0024566650390625,-0.0006256103515625,-0.000518798828125,-2.040952205657959,0.10714490711688995,0.04359119012951851
353,2024-10-03T10:33:21.677Z,-0.04465148225426674,0.10614004731178284,1.0191887617111206,0.0030670166015625,-0.0006256103515625,-0.001129150390625,-2.040952205657959,0.10714490711688995,0.04359119012951851
354,2024-10-03T10:33:21.706Z,-0.04318732023239136,0.10955538600683212,1.0174802541732788,0.0030670166015625,-0.0006256103515625,-0.001129150390625,-2.040952205657959,0.10714490711688995,0.04359119012951851
355,2024-10-03T10:33:21.706Z,-0.04318732023239136,0.10955538600683212,1.0174802541732788,0.0030670166015625,-0.0006256103515625,-0.001129150390625,-2.040999174118042,0.1072491854429245,0.04354512691497803
356,2024-10-03T10:33:21.706Z,-0.04318732023239136,0.10955538600683212,1.0174802541732788,0.0030670166015625,0.0012054443359375,-0.001129150390625,-2.040999174118042,0.1072491854429245,0.04354512691497803
357,2024-10-03T10:33:21.729Z,-0.042944591492414474,0.11053252965211868,1.0208956003189087,0.0030670166015625,0.0012054443359375,-0.001129150390625,-2.040999174118042,0.1072491854429245,0.04354512691497803
358,2024-10-03T10:33:21.736Z,-0.042944591492414474,0.11053252965211868,1.0208956003189087,0.0042877197265625,0.0005950927734375,-0.001129150390625,-2.040999174118042,0.1072491854429245,0.04354512691497803
359,2024-10-03T10:33:21.736Z,-0.042944591492414474,0.11053252965211868,1.0208956003189087,0.0042877197265625,0.0005950927734375,-0.001129150390625,-2.041097640991211,0.10740186274051666,0.043547168374061584
360,2024-10-03T10:33:21.755Z,-0.04318732023239136,0.10931265354156494,1.0165046453475952,0.0042877197265625,0.0005950927734375,-0.001129150390625,-2.041097640991211,0.10740186274051666,0.043547168374061584
361,2024-10-03T10:33:21.760Z,-0.04318732023239136,0.10931265354156494,1.0165046453475952,0.0036773681640625,-0.000030517578125,-0.001129150390625,-2.041097640991211,0.10740186274051666,0.043547168374061584
362,2024-10-03T10:33:21.769Z,-0.04318732023239136,0.10931265354156494,1.0165046453475952,0.0036773681640625,-0.000030517578125,-0.001129150390625,-2.04118013381958,0.10753202438354492,0.04354554042220116
363,2024-10-03T10:33:21.789Z,-0.04367589205503464,0.10979966819286346,1.019919991493225,0.0036773681640625,-0.000030517578125,-0.001129150390625,-2.04118013381958,0.10753202438354492,0.04354554042220116
364,2024-10-03T10:33:21.790Z,-0.04367589205503464,0.10979966819286346,1.019919991493225,0.0048980712890625,0.0018157958984375,-0.000518798828125,-2.04118013381958,0.10753202438354492,0.04354554042220116
365,2024-10-03T10:33:21.802Z,-0.04367589205503464,0.10979966819286346,1.019919991493225,0.0048980712890625,0.0018157958984375,-0.000518798828125,-2.0413098335266113,0.1077246144413948,0.043560903519392014
366,2024-10-03T10:33:21.821Z,-0.04367589205503464,0.10979966819286346,1.019919991493225,0.0055084228515625,0.0012054443359375,-0.001129150390625,-2.0413098335266113,0.1077246144413948,0.043560903519392014
367,2024-10-03T10:33:21.822Z,-0.04538433998823166,0.11199669539928436,1.0189443826675415,0.0055084228515625,0.0012054443359375,-0.001129150390625,-2.0413098335266113,0.1077246144413948,0.043560903519392014
368,2024-10-03T10:33:21.835Z,-0.04538433998823166,0.11199669539928436,1.0189443826675415,0.0055084228515625,0.0012054443359375,-0.001129150390625,-2.0414204597473145,0.10788577795028687,0.04357896000146866
369,2024-10-03T10:33:21.854Z,-0.044164467602968216,0.11126383394002914,1.019919991493225,0.0055084228515625,0.0012054443359375,-0.001129150390625,-2.0414204597473145,0.10788577795028687,0.04357896000146866
370,2024-10-03T10:33:21.855Z,-0.044164467602968216,0.11126383394002914,1.019919991493225,0.0042877197265625,0.0005950927734375,0.000091552734375,-2.0414204597473145,0.10788577795028687,0.04357896000146866
371,2024-10-03T10:33:21.868Z,-0.044164467602968216,0.11126383394002914,1.019919991493225,0.0042877197265625,0.0005950927734375,0.000091552734375,-2.0415146350860596,0.10803670436143875,0.04357336834073067
372,2024-10-03T10:33:21.890Z,-0.04172471538186073,0.11126383394002914,1.0201643705368042,0.0042877197265625,0.0005950927734375,0.000091552734375,-2.0415146350860596,0.10803670436143875,0.04357336834073067
373,2024-10-03T10:33:21.891Z,-0.04172471538186073,0.11126383394002914,1.0201643705368042,0.0030670166015625,-0.000030517578125,0.000091552734375,-2.0415146350860596,0.10803670436143875,0.04357336834073067
374,2024-10-03T10:33:21.903Z,-0.04172471538186073,0.11126383394002914,1.0201643705368042,0.0030670166015625,-0.000030517578125,0.000091552734375,-2.0415921211242676,0.10817258059978485,0.04355182871222496
375,2024-10-03T10:33:21.910Z,-0.04538433998823166,0.10979966819286346,1.0167474746704102,0.0030670166015625,-0.000030517578125,0.000091552734375,-2.0415921211242676,0.10817258059978485,0.04355182871222496
376,2024-10-03T10:33:21.918Z,-0.04538433998823166,0.10979966819286346,1.0167474746704102,0.0018463134765625,0.0012054443359375,0.000701904296875,-2.0415921211242676,0.10817258059978485,0.04355182871222496
377,2024-10-03T10:33:21.934Z,-0.04538433998823166,0.10979966819286346,1.0167474746704102,0.0018463134765625,0.0012054443359375,0.000701904296875,-2.041682004928589,0.10829778015613556,0.04357537999749184
378,2024-10-03T10:33:21.936Z,-0.044164467602968216,0.1110195443034172,1.0191887617111206,0.0018463134765625,0.0012054443359375,0.000701904296875,-2.041682004928589,0.10829778015613556,0.04357537999749184
379,2024-10-03T10:33:21.944Z,-0.044164467602968216,0.1110195443034172,1.0191887617111206,0.0036773681640625,-0.001251220703125,0.000091552734375,-2.041682004928589,0.10829778015613556,0.04357537999749184
380,2024-10-03T10:33:21.968Z,-0.044164467602968216,0.1110195443034172,1.0191887617111206,0.0036773681640625,-0.001251220703125,0.000091552734375,-2.041740655899048,0.10838063061237335,0.04358833655714989
381,2024-10-03T10:33:21.969Z,-0.04489576816558838,0.11223942041397095,1.019431471824646,0.0036773681640625,-0.001251220703125,0.000091552734375,-2.041740655899048,0.10838063061237335,0.04358833655714989
382,2024-10-03T10:33:21.970Z,-0.04489576816558838,0.11223942041397095,1.019431471824646,0.0024566650390625,0.0005950927734375,-0.000518798828125,-2.041740655899048,0.10838063061237335,0.04358833655714989
383,2024-10-03T10:33:21.993Z,-0.04538433998823166,0.11028824746608734,1.0196757316589355,0.0024566650390625,0.0005950927734375,-0.000518798828125,-2.041740655899048,0.10838063061237335,0.04358833655714989
384,2024-10-03T10:33:22.000Z,-0.04538433998823166,0.11028824746608734,1.0196757316589355,0.0024566650390625,0.0005950927734375,-0.000518798828125,-2.0417962074279785,0.10845618695020676,0.043605268001556396
385,2024-10-03T10:33:22.002Z,-0.04538433998823166,0.11028824746608734,1.0196757316589355,0.0018463134765625,0.0005950927734375,-0.000518798828125,-2.0417962074279785,0.10845618695020676,0.043605268001556396
386,2024-10-03T10:33:22.018Z,-0.04489576816558838,0.10979966819286346,1.0213842391967773,0.0018463134765625,0.0005950927734375,-0.000518798828125,-2.0417962074279785,0.10845618695020676,0.043605268001556396
387,2024-10-03T10:33:22.029Z,-0.04489576816558838,0.10979966819286346,1.0213842391967773,0.0022430419921875,0.0008392333984375,-0.0001220703125,-2.0417962074279785,0.10845618695020676,0.043605268001556396
388,2024-10-03T10:33:22.033Z,-0.04489576816558838,0.10979966819286346,1.0213842391967773,0.0022430419921875,0.0008392333984375,-0.0001220703125,-2.0418550968170166,0.10852913558483124,0.0436338447034359
389,2024-10-03T10:33:22.044Z,-0.04538433998823166,0.11028824746608734,1.0189443826675415,0.0022430419921875,0.0008392333984375,-0.0001220703125,-2.0418550968170166,0.10852913558483124,0.0436338447034359
390,2024-10-03T10:33:22.056Z,-0.04538433998823166,0.11028824746608734,1.0189443826675415,-0.0001983642578125,-0.000396728515625,-0.0001220703125,-2.0418550968170166,0.10852913558483124,0.0436338447034359
391,2024-10-03T10:33:22.068Z,-0.04538433998823166,0.11028824746608734,1.0189443826675415,-0.0001983642578125,-0.000396728515625,-0.0001220703125,-2.0418732166290283,0.10857205837965012,0.04361208528280258
392,2024-10-03T10:33:22.071Z,-0.041967444121837616,0.1100439578294754,1.0189443826675415,-0.0001983642578125,-0.000396728515625,-0.0001220703125,-2.0418732166290283,0.10857205837965012,0.04361208528280258
393,2024-10-03T10:33:22.087Z,-0.041967444121837616,0.1100439578294754,1.0189443826675415,-0.0001983642578125,0.0014495849609375,0.0010986328125,-2.0418732166290283,0.10857205837965012,0.04361208528280258
394,2024-10-03T10:33:22.102Z,-0.041967444121837616,0.1100439578294754,1.0189443826675415,-0.0001983642578125,0.0014495849609375,0.0010986328125,-2.041888952255249,0.10859774053096771,0.04361075907945633
395,2024-10-03T10:33:22.105Z,-0.04587135836482048,0.11053252965211868,1.0204086303710938,-0.0001983642578125,0.0014495849609375,0.0010986328125,-2.041888952255249,0.10859774053096771,0.04361075907945633
396,2024-10-03T10:33:22.120Z,-0.04587135836482048,0.11053252965211868,1.0204086303710938,-0.0001983642578125,-0.0009918212890625,-0.000732421875,-2.041888952255249,0.10859774053096771,0.04361075907945633
397,2024-10-03T10:33:22.134Z,-0.04587135836482048,0.11053252965211868,1.0204086303710938,-0.0001983642578125,-0.0009918212890625,-0.000732421875,-2.0418546199798584,0.10855893790721893,0.04358827322721481
398,2024-10-03T10:33:22.138Z,-0.04489576816558838,0.11028824746608734,1.0182116031646729,-0.0001983642578125,-0.0009918212890625,-0.000732421875,-2.0418546199798584,0.10855893790721893,0.04358827322721481
399,2024-10-03T10:33:22.159Z,-0.04489576816558838,0.11028824746608734,1.0182116031646729,0.0010223388671875,0.0002288818359375,0.0010986328125,-2.0418546199798584,0.10855893790721893,0.04358827322721481
400,2024-10-03T10:33:22.164Z,-0.04099185764789581,0.11370358616113663,1.0191887617111206,0.0010223388671875,0.0002288818359375,0.0010986328125,-2.0418546199798584,0.10855893790721893,0.04358827322721481
401,2024-10-03T10:33:22.171Z,-0.04099185764789581,0.11370358616113663,1.0191887617111206,0.0010223388671875,0.0002288818359375,0.0010986328125,-2.0418732166290283,0.1086055114865303,0.04356285557150841
402,2024-10-03T10:33:22.183Z,-0.04099185764789581,0.11370358616113663,1.0191887617111206,0.0010223388671875,0.0002288818359375,-0.000732421875,-2.0418732166290283,0.1086055114865303,0.04356285557150841
403,2024-10-03T10:33:22.190Z,-0.04611564427614212,0.11223942041397095,1.0182116031646729,0.0010223388671875,0.0002288818359375,-0.000732421875,-2.0418732166290283,0.1086055114865303,0.04356285557150841
404,2024-10-03T10:33:22.202Z,-0.04611564427614212,0.11223942041397095,1.0182116031646729,0.0010223388671875,0.0002288818359375,-0.000732421875,-2.0419046878814697,0.10865175724029541,0.04356715455651283
405,2024-10-03T10:33:22.211Z,-0.04611564427614212,0.11223942041397095,1.0182116031646729,-0.0001983642578125,-0.000396728515625,-0.0001220703125,-2.0419046878814697,0.10865175724029541,0.04356715455651283
406,2024-10-03T10:33:22.215Z,-0.043431606143713,0.11297228187322617,1.019431471824646,-0.0001983642578125,-0.000396728515625,-0.0001220703125,-2.0419046878814697,0.10865175724029541,0.04356715455651283
407,2024-10-03T10:33:22.233Z,-0.043431606143713,0.11297228187322617,1.019431471824646,-0.0001983642578125,-0.000396728515625,-0.0001220703125,-2.041891098022461,0.10864140838384628,0.0435512475669384
408,2024-10-03T10:33:22.236Z,-0.043431606143713,0.11297228187322617,1.019431471824646,-0.0001983642578125,0.0002288818359375,0.00048828125,-2.041891098022461,0.10864140838384628,0.0435512475669384
409,2024-10-03T10:33:22.241Z,-0.04611564427614212,0.11321656405925751,1.0172359943389893,-0.0001983642578125,0.0002288818359375,0.00048828125,-2.041891098022461,0.10864140838384628,0.0435512475669384
410,2024-10-03T10:33:22.267Z,-0.04611564427614212,0.11321656405925751,1.0172359943389893,-0.0001983642578125,0.0002288818359375,0.00048828125,-2.0418856143951416,0.10865434259176254,0.04351947456598282
411,2024-10-03T10:33:22.268Z,-0.04611564427614212,0.11321656405925751,1.0172359943389893,-0.0014190673828125,-0.0009918212890625,0.0010986328125,-2.0418856143951416,0.10865434259176254,0.04351947456598282
412,2024-10-03T10:33:22.270Z,-0.04489576816558838,0.11175240576267242,1.0189443826675415,-0.0014190673828125,-0.0009918212890625,0.0010986328125,-2.0418856143951416,0.10865434259176254,0.04351947456598282
413,2024-10-03T10:33:22.380Z,-0.044164467602968216,0.11199669539928436,1.0201643705368042,-0.0014190673828125,-0.0009918212890625,0.0010986328125,-2.0418856143951416,0.10865434259176254,0.04351947456598282
414,2024-10-03T10:33:22.381Z,-0.044164467602968216,0.11199669539928436,1.0201643705368042,-0.0038604736328125,-0.000396728515625,-0.0001220703125,-2.0418856143951416,0.10865434259176254,0.04351947456598282
415,2024-10-03T10:33:22.382Z,-0.044164467602968216,0.11199669539928436,1.0201643705368042,-0.002044677734375,-0.0009918212890625,-0.000732421875,-2.0418856143951416,0.10865434259176254,0.04351947456598282
416,2024-10-03T10:33:22.382Z,-0.04538433998823166,0.11150811612606049,1.0182116031646729,-0.002044677734375,-0.0009918212890625,-0.000732421875,-2.0418856143951416,0.10865434259176254,0.04351947456598282
417,2024-10-03T10:33:22.383Z,-0.04538433998823166,0.11150811612606049,1.0182116031646729,-0.000823974609375,0.0008392333984375,0.00048828125,-2.0418856143951416,0.10865434259176254,0.04351947456598282
418,2024-10-03T10:33:22.383Z,-0.043920181691646576,0.11223942041397095,1.0184558629989624,-0.000823974609375,0.0008392333984375,0.00048828125,-2.0418856143951416,0.10865434259176254,0.04351947456598282
419,2024-10-03T10:33:22.384Z,-0.043920181691646576,0.11223942041397095,1.0184558629989624,-0.0014190673828125,-0.0009918212890625,-0.0001220703125,-2.0418856143951416,0.10865434259176254,0.04351947456598282
420,2024-10-03T10:33:22.384Z,-0.043920181691646576,0.11223942041397095,1.0201643705368042,-0.0014190673828125,-0.0009918212890625,-0.0001220703125,-2.0418856143951416,0.10865434259176254,0.04351947456598282
421,2024-10-03T10:33:22.384Z,-0.043920181691646576,0.11223942041397095,1.0201643705368042,-0.0014190673828125,-0.0009918212890625,-0.0001220703125,-2.041782855987549,0.10851914435625076,0.04348129779100418
422,2024-10-03T10:33:22.384Z,-0.043920181691646576,0.11223942041397095,1.0201643705368042,-0.0014190673828125,-0.0009918212890625,-0.0001220703125,-2.041782855987549,0.10851914435625076,0.04348129779100418
423,2024-10-03T10:33:22.385Z,-0.043920181691646576,0.11223942041397095,1.0201643705368042,-0.0014190673828125,-0.0009918212890625,-0.0001220703125,-2.041782855987549,0.10851914435625076,0.04348129779100418
424,2024-10-03T10:33:22.399Z,-0.043920181691646576,0.11223942041397095,1.0201643705368042,-0.0014190673828125,-0.0009918212890625,-0.0001220703125,-2.0417730808258057,0.10851086676120758,0.043470874428749084
425,2024-10-03T10:33:22.403Z,-0.043920181691646576,0.11223942041397095,1.0201643705368042,-0.0014190673828125,-0.0009918212890625,-0.0001220703125,-2.0417730808258057,0.10851086676120758,0.043470874428749084
426,2024-10-03T10:33:22.406Z,-0.04489576816558838,0.11028824746608734,1.019431471824646,-0.0014190673828125,-0.0009918212890625,-0.0001220703125,-2.0417730808258057,0.10851086676120758,0.043470874428749084
427,2024-10-03T10:33:22.431Z,-0.04489576816558838,0.11028824746608734,1.019431471824646,-0.002044677734375,-0.0009918212890625,-0.0013427734375,-2.0417730808258057,0.10851086676120758,0.043470874428749084
428,2024-10-03T10:33:22.432Z,-0.04489576816558838,0.11028824746608734,1.019431471824646,-0.002044677734375,-0.0009918212890625,-0.0013427734375,-2.0416879653930664,0.108407162129879,0.04342691972851753
429,2024-10-03T10:33:22.436Z,-0.042944591492414474,0.11028824746608734,1.0191887617111206,-0.002044677734375,-0.0009918212890625,-0.0013427734375,-2.0416879653930664,0.108407162129879,0.04342691972851753
430,2024-10-03T10:33:22.457Z,-0.042944591492414474,0.11028824746608734,1.0191887617111206,-0.0026397705078125,-0.001617431640625,0.00048828125,-2.0416879653930664,0.108407162129879,0.04342691972851753
431,2024-10-03T10:33:22.464Z,-0.04367589205503464,0.11175240576267242,1.019431471824646,-0.0026397705078125,-0.001617431640625,0.00048828125,-2.0416879653930664,0.108407162129879,0.04342691972851753
432,2024-10-03T10:33:22.467Z,-0.04367589205503464,0.11175240576267242,1.019431471824646,-0.0026397705078125,-0.001617431640625,0.00048828125,-2.0416345596313477,0.10833652317523956,0.04340743273496628
433,2024-10-03T10:33:22.485Z,-0.04367589205503464,0.11175240576267242,1.019431471824646,-0.004486083984375,-0.0022125244140625,0.001708984375,-2.0416345596313477,0.10833652317523956,0.04340743273496628
434,2024-10-03T10:33:22.491Z,-0.043920181691646576,0.11077526211738586,1.019919991493225,-0.004486083984375,-0.0022125244140625,0.001708984375,-2.0416345596313477,0.10833652317523956,0.04340743273496628
435,2024-10-03T10:33:22.506Z,-0.043920181691646576,0.11077526211738586,1.019919991493225,-0.004486083984375,-0.0022125244140625,0.001708984375,-2.0415072441101074,0.1081935241818428,0.043323978781700134
436,2024-10-03T10:33:22.511Z,-0.043920181691646576,0.11077526211738586,1.019919991493225,-0.0038604736328125,-0.000396728515625,-0.0001220703125,-2.0415072441101074,0.1081935241818428,0.043323978781700134
437,2024-10-03T10:33:22.519Z,-0.04538433998823166,0.11028824746608734,1.0182116031646729,-0.0038604736328125,-0.000396728515625,-0.0001220703125,-2.0415072441101074,0.1081935241818428,0.043323978781700134
438,2024-10-03T10:33:22.537Z,-0.04538433998823166,0.11028824746608734,1.0182116031646729,-0.0038604736328125,-0.000396728515625,-0.0001220703125,-2.0414211750030518,0.10807769000530243,0.043295569717884064
439,2024-10-03T10:33:22.538Z,-0.04538433998823166,0.11028824746608734,1.0182116031646729,-0.0038604736328125,-0.000396728515625,-0.000732421875,-2.0414211750030518,0.10807769000530243,0.043295569717884064
440,2024-10-03T10:33:22.546Z,-0.04514005407691002,0.1110195443034172,1.0206513404846191,-0.0038604736328125,-0.000396728515625,-0.000732421875,-2.0414211750030518,0.10807769000530243,0.043295569717884064
441,2024-10-03T10:33:22.564Z,-0.04514005407691002,0.1110195443034172,1.0206513404846191,-0.0038604736328125,-0.001617431640625,0.00048828125,-2.0414211750030518,0.10807769000530243,0.043295569717884064
442,2024-10-03T10:33:22.569Z,-0.04514005407691002,0.1110195443034172,1.0206513404846191,-0.0038604736328125,-0.001617431640625,0.00048828125,-2.041341781616211,0.10797449201345444,0.043264228850603104
443,2024-10-03T10:33:22.572Z,-0.042944591492414474,0.10955538600683212,1.0191887617111206,-0.0038604736328125,-0.001617431640625,0.00048828125,-2.041341781616211,0.10797449201345444,0.043264228850603104
444,2024-10-03T10:33:22.590Z,-0.042944591492414474,0.10955538600683212,1.0191887617111206,-0.0026397705078125,0.0002288818359375,0.00048828125,-2.041341781616211,0.10797449201345444,0.043264228850603104
445,2024-10-03T10:33:22.606Z,-0.043920181691646576,0.10955538600683212,1.0191887617111206,-0.0026397705078125,0.0002288818359375,0.00048828125,-2.041341781616211,0.10797449201345444,0.043264228850603104
446,2024-10-03T10:33:22.607Z,-0.043920181691646576,0.10955538600683212,1.0191887617111206,-0.0026397705078125,0.0002288818359375,0.00048828125,-2.041259527206421,0.10787168890237808,0.04322616755962372
447,2024-10-03T10:33:22.622Z,-0.043920181691646576,0.10955538600683212,1.0191887617111206,-0.000823974609375,-0.001617431640625,-0.0001220703125,-2.041259527206421,0.10787168890237808,0.04322616755962372
448,2024-10-03T10:33:22.629Z,-0.044164467602968216,0.11077526211738586,1.0189443826675415,-0.000823974609375,-0.001617431640625,-0.0001220703125,-2.041259527206421,0.10787168890237808,0.04322616755962372
449,2024-10-03T10:33:22.641Z,-0.044164467602968216,0.11077526211738586,1.0189443826675415,-0.000823974609375,-0.001617431640625,-0.0001220703125,-2.041199207305908,0.10779479146003723,0.04319966956973076
450,2024-10-03T10:33:22.646Z,-0.044164467602968216,0.11077526211738586,1.0189443826675415,-0.0014190673828125,0.0002288818359375,0.00048828125,-2.041199207305908,0.10779479146003723,0.04319966956973076
451,2024-10-03T10:33:22.657Z,-0.042456019669771194,0.11150811612606049,1.0189443826675415,-0.0014190673828125,0.0002288818359375,0.00048828125,-2.041199207305908,0.10779479146003723,0.04319966956973076
452,2024-10-03T10:33:22.679Z,-0.042456019669771194,0.11150811612606049,1.0189443826675415,-0.000823974609375,0.0002288818359375,0.00048828125,-2.041199207305908,0.10779479146003723,0.04319966956973076
453,2024-10-03T10:33:22.680Z,-0.042456019669771194,0.11150811612606049,1.0189443826675415,-0.000823974609375,0.0002288818359375,0.00048828125,-2.04117488861084,0.10777907073497772,0.04316672310233116
454,2024-10-03T10:33:22.693Z,-0.04587135836482048,0.10882408171892166,1.018700122833252,-0.000823974609375,0.0002288818359375,0.00048828125,-2.04117488861084,0.10777907073497772,0.04316672310233116
455,2024-10-03T10:33:22.712Z,-0.04587135836482048,0.10882408171892166,1.018700122833252,-0.000823974609375,0.0008392333984375,-0.0001220703125,-2.04117488861084,0.10777907073497772,0.04316672310233116
456,2024-10-03T10:33:22.712Z,-0.04587135836482048,0.10882408171892166,1.018700122833252,-0.000823974609375,0.0008392333984375,-0.0001220703125,-2.0411691665649414,0.10774921625852585,0.04319731518626213
457,2024-10-03T10:33:22.716Z,-0.042456019669771194,0.11199669539928436,1.018700122833252,-0.000823974609375,0.0008392333984375,-0.0001220703125,-2.0411691665649414,0.10774921625852585,0.04319731518626213
458,2024-10-03T10:33:22.733Z,-0.042456019669771194,0.11199669539928436,1.018700122833252,-0.0014190673828125,-0.000396728515625,0.00048828125,-2.0411691665649414,0.10774921625852585,0.04319731518626213
459,2024-10-03T10:33:22.740Z,-0.042456019669771194,0.11199669539928436,1.018700122833252,-0.0014190673828125,-0.000396728515625,0.00048828125,-2.041161060333252,0.10777126252651215,0.04314584657549858
460,2024-10-03T10:33:22.746Z,-0.04611564427614212,0.11126383394002914,1.0201643705368042,-0.0014190673828125,-0.000396728515625,0.00048828125,-2.041161060333252,0.10777126252651215,0.04314584657549858
461,2024-10-03T10:33:22.756Z,-0.04611564427614212,0.11126383394002914,1.0201643705368042,-0.000823974609375,0.0002288818359375,0.0010986328125,-2.041161060333252,0.10777126252651215,0.04314584657549858
462,2024-10-03T10:33:22.770Z,-0.04611564427614212,0.11126383394002914,1.0201643705368042,-0.000823974609375,0.0002288818359375,0.0010986328125,-2.0411484241485596,0.10776466876268387,0.043126340955495834
463,2024-10-03T10:33:22.776Z,-0.04318732023239136,0.10979966819286346,1.0184558629989624,-0.000823974609375,0.0002288818359375,0.0010986328125,-2.0411484241485596,0.10776466876268387,0.043126340955495834
464,2024-10-03T10:33:22.784Z,-0.04318732023239136,0.10979966819286346,1.0184558629989624,-0.0001983642578125,-0.000396728515625,-0.0001220703125,-2.0411484241485596,0.10776466876268387,0.043126340955495834
465,2024-10-03T10:33:22.802Z,-0.04318732023239136,0.10979966819286346,1.0184558629989624,-0.0001983642578125,-0.000396728515625,-0.0001220703125,-2.0411722660064697,0.10777315497398376,0.04316895082592964
466,2024-10-03T10:33:22.805Z,-0.04465148225426674,0.11053252965211868,1.019431471824646,-0.0001983642578125,-0.000396728515625,-0.0001220703125,-2.0411722660064697,0.10777315497398376,0.04316895082592964
467,2024-10-03T10:33:22.811Z,-0.04465148225426674,0.11053252965211868,1.019431471824646,-0.0014190673828125,-0.0009918212890625,-0.0001220703125,-2.0411722660064697,0.10777315497398376,0.04316895082592964
468,2024-10-03T10:33:22.828Z,-0.042700305581092834,0.10882408171892166,1.019431471824646,-0.0014190673828125,-0.0009918212890625,-0.0001220703125,-2.0411722660064697,0.10777315497398376,0.04316895082592964
469,2024-10-03T10:33:22.842Z,-0.042700305581092834,0.10882408171892166,1.019431471824646,-0.0001983642578125,-0.0009918212890625,0.00048828125,-2.0411722660064697,0.10777315497398376,0.04316895082592964
470,2024-10-03T10:33:22.842Z,-0.042700305581092834,0.10882408171892166,1.019431471824646,-0.0001983642578125,-0.0009918212890625,0.00048828125,-2.0411243438720703,0.10774172842502594,0.04310460016131401
471,2024-10-03T10:33:22.857Z,-0.0456286258995533,0.1090683713555336,1.0211398601531982,-0.0001983642578125,-0.0009918212890625,0.00048828125,-2.0411243438720703,0.10774172842502594,0.04310460016131401
472,2024-10-03T10:33:22.865Z,-0.0456286258995533,0.1090683713555336,1.0211398601531982,-0.0001983642578125,0.0002288818359375,0.00048828125,-2.0411243438720703,0.10774172842502594,0.04310460016131401
473,2024-10-03T10:33:22.872Z,-0.0456286258995533,0.1090683713555336,1.0211398601531982,-0.0001983642578125,0.0002288818359375,0.00048828125,-2.041114330291748,0.10771845281124115,0.04311547428369522
474,2024-10-03T10:33:22.880Z,-0.042211733758449554,0.11150811612606049,1.0206513404846191,-0.0001983642578125,0.0002288818359375,0.00048828125,-2.041114330291748,0.10771845281124115,0.04311547428369522
475,2024-10-03T10:33:22.896Z,-0.042211733758449554,0.11150811612606049,1.0206513404846191,0.000396728515625,0.0002288818359375,0.0010986328125,-2.041114330291748,0.10771845281124115,0.04311547428369522
476,2024-10-03T10:33:22.907Z,-0.042211733758449554,0.11150811612606049,1.0206513404846191,0.000396728515625,0.0002288818359375,0.0010986328125,-2.0411128997802734,0.10773817449808121,0.04308300465345383
477,2024-10-03T10:33:22.910Z,-0.042456019669771194,0.10809122025966644,1.0189443826675415,0.000396728515625,0.0002288818359375,0.0010986328125,-2.0411128997802734,0.10773817449808121,0.04308300465345383
478,2024-10-03T10:33:22.923Z,-0.042456019669771194,0.10809122025966644,1.0189443826675415,0.000396728515625,-0.000396728515625,-0.000732421875,-2.0411128997802734,0.10773817449808121,0.04308300465345383
479,2024-10-03T10:33:22.939Z,-0.04318732023239136,0.1110195443034172,1.0196757316589355,0.000396728515625,-0.000396728515625,-0.000732421875,-2.0411128997802734,0.10773817449808121,0.04308300465345383
480,2024-10-03T10:33:22.940Z,-0.04318732023239136,0.1110195443034172,1.0196757316589355,0.000396728515625,-0.000396728515625,-0.000732421875,-2.0410966873168945,0.1077045202255249,0.043095193803310394
481,2024-10-03T10:33:22.949Z,-0.04318732023239136,0.1110195443034172,1.0196757316589355,0.0010223388671875,0.0008392333984375,-0.0001220703125,-2.0410966873168945,0.1077045202255249,0.043095193803310394
482,2024-10-03T10:33:22.963Z,-0.043431606143713,0.11150811612606049,1.018700122833252,0.0010223388671875,0.0008392333984375,-0.0001220703125,-2.0410966873168945,0.1077045202255249,0.043095193803310394
483,2024-10-03T10:33:22.976Z,-0.043431606143713,0.11150811612606049,1.018700122833252,0.0016326904296875,-0.0009918212890625,0.0010986328125,-2.0410966873168945,0.1077045202255249,0.043095193803310394
484,2024-10-03T10:33:22.977Z,-0.043431606143713,0.11150811612606049,1.018700122833252,0.0016326904296875,-0.0009918212890625,0.0010986328125,-2.0411317348480225,0.1077675074338913,0.04308314248919487
485,2024-10-03T10:33:22.991Z,-0.04465148225426674,0.10882408171892166,1.018700122833252,0.0016326904296875,-0.0009918212890625,0.0010986328125,-2.0411317348480225,0.1077675074338913,0.04308314248919487
486,2024-10-03T10:33:23.007Z,-0.04465148225426674,0.10882408171892166,1.018700122833252,0.000396728515625,0.0002288818359375,-0.000732421875,-2.0411317348480225,0.1077675074338913,0.04308314248919487
487,2024-10-03T10:33:23.007Z,-0.04465148225426674,0.10882408171892166,1.018700122833252,0.000396728515625,0.0002288818359375,-0.000732421875,-2.041121244430542,0.10772746801376343,0.04311864450573921
488,2024-10-03T10:33:23.018Z,-0.044164467602968216,0.11223942041397095,1.0191887617111206,0.000396728515625,0.0002288818359375,-0.000732421875,-2.041121244430542,0.10772746801376343,0.04311864450573921
489,2024-10-03T10:33:23.031Z,-0.044164467602968216,0.11223942041397095,1.0191887617111206,0.0022430419921875,0.0002288818359375,-0.0013427734375,-2.041121244430542,0.10772746801376343,0.04311864450573921
490,2024-10-03T10:33:23.037Z,-0.044164467602968216,0.11223942041397095,1.0191887617111206,0.0022430419921875,0.0002288818359375,-0.0013427734375,-2.0411605834960938,0.10779020190238953,0.043116774410009384
491,2024-10-03T10:33:23.048Z,-0.043920181691646576,0.10857979953289032,1.0204086303710938,0.0022430419921875,0.0002288818359375,-0.0013427734375,-2.0411605834960938,0.10779020190238953,0.043116774410009384
492,2024-10-03T10:33:23.061Z,-0.043920181691646576,0.10857979953289032,1.0204086303710938,0.0022430419921875,0.0002288818359375,-0.0001220703125,-2.0411605834960938,0.10779020190238953,0.043116774410009384
493,2024-10-03T10:33:23.072Z,-0.043920181691646576,0.10857979953289032,1.0204086303710938,0.0022430419921875,0.0002288818359375,-0.0001220703125,-2.041198253631592,0.10784853249788284,0.043118081986904144
494,2024-10-03T10:33:23.083Z,-0.04538433998823166,0.11199669539928436,1.0201643705368042,0.0022430419921875,0.0002288818359375,-0.0001220703125,-2.041198253631592,0.10784853249788284,0.043118081986904144
495,2024-10-03T10:33:23.088Z,-0.04538433998823166,0.11199669539928436,1.0201643705368042,-0.002044677734375,0.0008392333984375,0.00048828125,-2.041198253631592,0.10784853249788284,0.043118081986904144
496,2024-10-03T10:33:23.102Z,-0.04538433998823166,0.11199669539928436,1.0201643705368042,-0.002044677734375,0.0008392333984375,0.00048828125,-2.0412495136260986,0.10791622847318649,0.04313647001981735
497,2024-10-03T10:33:23.112Z,-0.04367589205503464,0.11150811612606049,1.0206513404846191,-0.002044677734375,0.0008392333984375,0.00048828125,-2.0412495136260986,0.10791622847318649,0.04313647001981735
498,2024-10-03T10:33:23.114Z,-0.04367589205503464,0.11150811612606049,1.0206513404846191,0.0010223388671875,0.0002288818359375,-0.000732421875,-2.0412495136260986,0.10791622847318649,0.04313647001981735
499,2024-10-03T10:33:23.139Z,-0.04367589205503464,0.11150811612606049,1.0206513404846191,0.0010223388671875,0.0002288818359375,-0.000732421875,-2.041262149810791,0.10792754590511322,0.04314911365509033
500,2024-10-03T10:33:23.145Z,-0.04367589205503464,0.11150811612606049,1.0206513404846191,-0.000823974609375,0.0008392333984375,0.0023193359375,-2.041262149810791,0.10792754590511322,0.04314911365509033
501,2024-10-03T10:33:23.146Z,-0.043431606143713,0.10882408171892166,1.018700122833252,-0.000823974609375,0.0008392333984375,0.0023193359375,-2.041262149810791,0.10792754590511322,0.04314911365509033
502,2024-10-03T10:33:23.172Z,-0.043431606143713,0.10882408171892166,1.018700122833252,-0.0001983642578125,0.0014495849609375,0.0010986328125,-2.041262149810791,0.10792754590511322,0.04314911365509033
503,2024-10-03T10:33:23.172Z,-0.044164467602968216,0.10979966819286346,1.0182116031646729,-0.0001983642578125,0.0014495849609375,0.0010986328125,-2.041262149810791,0.10792754590511322,0.04314911365509033
504,2024-10-03T10:33:23.173Z,-0.044164467602968216,0.10979966819286346,1.0182116031646729,-0.0001983642578125,0.0014495849609375,0.0010986328125,-2.041292190551758,0.10797933489084244,0.043142177164554596
505,2024-10-03T10:33:23.199Z,-0.044164467602968216,0.10979966819286346,1.0182116031646729,-0.0001983642578125,0.0008392333984375,0.00048828125,-2.041292190551758,0.10797933489084244,0.043142177164554596
506,2024-10-03T10:33:23.200Z,-0.042700305581092834,0.10931265354156494,1.0208956003189087,-0.0001983642578125,0.0008392333984375,0.00048828125,-2.041292190551758,0.10797933489084244,0.043142177164554596
507,2024-10-03T10:33:23.211Z,-0.042700305581092834,0.10931265354156494,1.0208956003189087,-0.0001983642578125,0.0008392333984375,0.00048828125,-2.041259288787842,0.10793580859899521,0.04313027113676071
508,2024-10-03T10:33:23.233Z,-0.042700305581092834,0.10931265354156494,1.0208956003189087,0.0022430419921875,0.0014495849609375,-0.000732421875,-2.041259288787842,0.10793580859899521,0.04313027113676071
509,2024-10-03T10:33:23.234Z,-0.043920181691646576,0.11077526211738586,1.0179673433303833,0.0022430419921875,0.0014495849609375,-0.000732421875,-2.041259288787842,0.10793580859899521,0.04313027113676071
510,2024-10-03T10:33:23.242Z,-0.043920181691646576,0.11077526211738586,1.0179673433303833,0.0022430419921875,0.0014495849609375,-0.000732421875,-2.041294574737549,0.10801004618406296,0.04310208186507225
511,2024-10-03T10:33:23.260Z,-0.043920181691646576,0.11077526211738586,1.0179673433303833,-0.000823974609375,0.0002288818359375,0.0010986328125,-2.041294574737549,0.10801004618406296,0.04310208186507225
512,2024-10-03T10:33:23.263Z,-0.044164467602968216,0.1110195443034172,1.0206513404846191,-0.000823974609375,0.0002288818359375,0.0010986328125,-2.041294574737549,0.10801004618406296,0.04310208186507225
513,2024-10-03T10:33:23.272Z,-0.044164467602968216,0.1110195443034172,1.0206513404846191,-0.000823974609375,0.0002288818359375,0.0010986328125,-2.0413222312927246,0.10804757475852966,0.04311087355017662
514,2024-10-03T10:33:23.368Z,-0.04514005407691002,0.11077526211738586,1.0201643705368042,-0.000823974609375,0.0002288818359375,0.0010986328125,-2.0413222312927246,0.10804757475852966,0.04311087355017662
515,2024-10-03T10:33:23.368Z,-0.04514005407691002,0.11077526211738586,1.0201643705368042,-0.0001983642578125,0.0008392333984375,-0.0001220703125,-2.0413222312927246,0.10804757475852966,0.04311087355017662
516,2024-10-03T10:33:23.369Z,-0.04514005407691002,0.11077526211738586,1.0201643705368042,-0.000823974609375,0.0008392333984375,-0.0001220703125,-2.0413222312927246,0.10804757475852966,0.04311087355017662
517,2024-10-03T10:33:23.369Z,-0.04318732023239136,0.10882408171892166,1.0184558629989624,-0.000823974609375,0.0008392333984375,-0.0001220703125,-2.0413222312927246,0.10804757475852966,0.04311087355017662
518,2024-10-03T10:33:23.370Z,-0.04489576816558838,0.11150811612606049,1.021628499031067,-0.000823974609375,0.0008392333984375,-0.0001220703125,-2.0413222312927246,0.10804757475852966,0.04311087355017662
519,2024-10-03T10:33:23.370Z,-0.04489576816558838,0.11150811612606049,1.021628499031067,-0.000823974609375,-0.000396728515625,0.00048828125,-2.0413222312927246,0.10804757475852966,0.04311087355017662
520,2024-10-03T10:33:23.371Z,-0.04489576816558838,0.11150811612606049,1.021628499031067,-0.000823974609375,-0.000396728515625,0.00048828125,-2.0413551330566406,0.10808735340833664,0.04312784597277641
521,2024-10-03T10:33:23.371Z,-0.04489576816558838,0.11150811612606049,1.021628499031067,-0.000823974609375,-0.000396728515625,0.00048828125,-2.0413551330566406,0.10808735340833664,0.04312784597277641
522,2024-10-03T10:33:23.371Z,-0.04489576816558838,0.11150811612606049,1.021628499031067,-0.000823974609375,-0.000396728515625,0.00048828125,-2.0413551330566406,0.10808735340833664,0.04312784597277641
523,2024-10-03T10:33:23.373Z,-0.04489576816558838,0.11150811612606049,1.021628499031067,-0.0001983642578125,0.0014495849609375,-0.0013427734375,-2.0413551330566406,0.10808735340833664,0.04312784597277641
524,2024-10-03T10:33:23.373Z,-0.04489576816558838,0.11321656405925751,1.0182116031646729,-0.0001983642578125,0.0014495849609375,-0.0013427734375,-2.0413551330566406,0.10808735340833664,0.04312784597277641
525,2024-10-03T10:33:23.399Z,-0.04611564427614212,0.11150811612606049,1.0206513404846191,-0.0001983642578125,0.0014495849609375,-0.0013427734375,-2.0413551330566406,0.10808735340833664,0.04312784597277641
526,2024-10-03T10:33:23.399Z,-0.04611564427614212,0.11150811612606049,1.0206513404846191,-0.000823974609375,-0.000396728515625,-0.0001220703125,-2.0413551330566406,0.10808735340833664,0.04312784597277641
527,2024-10-03T10:33:23.401Z,-0.04611564427614212,0.11150811612606049,1.0206513404846191,-0.000823974609375,-0.000396728515625,-0.0001220703125,-2.041351795196533,0.10809077322483063,0.04311521351337433
528,2024-10-03T10:33:23.426Z,-0.043431606143713,0.11150811612606049,1.0204086303710938,-0.000823974609375,-0.000396728515625,-0.0001220703125,-2.041351795196533,0.10809077322483063,0.04311521351337433
529,2024-10-03T10:33:23.426Z,-0.043431606143713,0.11150811612606049,1.0204086303710938,-0.000823974609375,0.0002288818359375,-0.0013427734375,-2.041351795196533,0.10809077322483063,0.04311521351337433
530,2024-10-03T10:33:23.434Z,-0.043431606143713,0.11150811612606049,1.0204086303710938,-0.000823974609375,0.0002288818359375,-0.0013427734375,-2.041334867477417,0.10806715488433838,0.04311082512140274
531,2024-10-03T10:33:23.453Z,-0.043431606143713,0.11150811612606049,1.0204086303710938,-0.000823974609375,0.0002288818359375,-0.0001220703125,-2.041334867477417,0.10806715488433838,0.04311082512140274
532,2024-10-03T10:33:23.454Z,-0.042456019669771194,0.11150811612606049,1.0184558629989624,-0.000823974609375,0.0002288818359375,-0.0001220703125,-2.041334867477417,0.10806715488433838,0.04311082512140274
533,2024-10-03T10:33:23.474Z,-0.042456019669771194,0.11150811612606049,1.0184558629989624,-0.000823974609375,0.0002288818359375,-0.0001220703125,-2.0413639545440674,0.10810733586549759,0.04311880096793175
534,2024-10-03T10:33:23.480Z,-0.042700305581092834,0.11272799223661423,1.019431471824646,-0.000823974609375,0.0002288818359375,-0.0001220703125,-2.0413639545440674,0.10810733586549759,0.04311880096793175
535,2024-10-03T10:33:23.481Z,-0.042700305581092834,0.11272799223661423,1.019431471824646,0.000396728515625,0.0020599365234375,-0.0001220703125,-2.0413639545440674,0.10810733586549759,0.04311880096793175
536,2024-10-03T10:33:23.507Z,-0.042700305581092834,0.11272799223661423,1.019431471824646,0.000396728515625,0.0020599365234375,-0.0001220703125,-2.041360378265381,0.10810665786266327,0.04311160743236542
537,2024-10-03T10:33:23.509Z,-0.042700305581092834,0.11272799223661423,1.019431471824646,-0.000823974609375,0.0002288818359375,-0.000732421875,-2.041360378265381,0.10810665786266327,0.04311160743236542
538,2024-10-03T10:33:23.510Z,-0.042944591492414474,0.11345929652452469,1.0182116031646729,-0.000823974609375,0.0002288818359375,-0.000732421875,-2.041360378265381,0.10810665786266327,0.04311160743236542
539,2024-10-03T10:33:23.539Z,-0.042944591492414474,0.11345929652452469,1.0182116031646729,-0.000823974609375,0.0002288818359375,-0.000732421875,-2.041355609893799,0.10811043530702591,0.043095070868730545
540,2024-10-03T10:33:23.543Z,-0.042700305581092834,0.10955538600683212,1.019919991493225,-0.000823974609375,0.0002288818359375,-0.000732421875,-2.041355609893799,0.10811043530702591,0.043095070868730545
541,2024-10-03T10:33:23.545Z,-0.042700305581092834,0.10955538600683212,1.019919991493225,0.000396728515625,0.0008392333984375,0.00048828125,-2.041355609893799,0.10811043530702591,0.043095070868730545
542,2024-10-03T10:33:23.573Z,-0.042700305581092834,0.10955538600683212,1.019919991493225,-0.0001983642578125,0.0002288818359375,-0.0001220703125,-2.041355609893799,0.10811043530702591,0.043095070868730545
543,2024-10-03T10:33:23.573Z,-0.042944591492414474,0.10979966819286346,1.0206513404846191,-0.0001983642578125,0.0002288818359375,-0.0001220703125,-2.041355609893799,0.10811043530702591,0.043095070868730545
544,2024-10-03T10:33:23.573Z,-0.042944591492414474,0.10979966819286346,1.0206513404846191,-0.0001983642578125,0.0002288818359375,-0.0001220703125,-2.041330337524414,0.10810588300228119,0.04304289445281029
545,2024-10-03T10:33:23.598Z,-0.041967444121837616,0.10931265354156494,1.0179673433303833,-0.0001983642578125,0.0002288818359375,-0.0001220703125,-2.041330337524414,0.10810588300228119,0.04304289445281029
546,2024-10-03T10:33:23.598Z,-0.041967444121837616,0.10931265354156494,1.0179673433303833,0.000396728515625,-0.0009918212890625,-0.000732421875,-2.041330337524414,0.10810588300228119,0.04304289445281029
547,2024-10-03T10:33:23.609Z,-0.041967444121837616,0.10931265354156494,1.0179673433303833,0.000396728515625,-0.0009918212890625,-0.000732421875,-2.0413002967834473,0.10804843157529831,0.043058253824710846
548,2024-10-03T10:33:23.625Z,-0.041967444121837616,0.10931265354156494,1.0179673433303833,0.0010223388671875,-0.000396728515625,-0.0001220703125,-2.0413002967834473,0.10804843157529831,0.043058253824710846
549,2024-10-03T10:33:23.626Z,-0.04489576816558838,0.11150811612606049,1.0177245140075684,0.0010223388671875,-0.000396728515625,-0.0001220703125,-2.0413002967834473,0.10804843157529831,0.043058253824710846
550,2024-10-03T10:33:23.640Z,-0.04489576816558838,0.11150811612606049,1.0177245140075684,0.0010223388671875,-0.000396728515625,-0.0001220703125,-2.041416645050049,0.10810459405183792,0.043245382606983185
551,2024-10-03T10:33:23.655Z,-0.03806353360414505,0.11345929652452469,1.0299233198165894,0.0010223388671875,-0.000396728515625,-0.0001220703125,-2.041416645050049,0.10810459405183792,0.043245382606983185
552,2024-10-03T10:33:23.655Z,-0.03806353360414505,0.11345929652452469,1.0299233198165894,0.000396728515625,0.0014495849609375,-0.001953125,-2.041416645050049,0.10810459405183792,0.043245382606983185
553,2024-10-03T10:33:23.673Z,-0.03806353360414505,0.11345929652452469,1.0299233198165894,0.000396728515625,0.0014495849609375,-0.001953125,-2.0418524742126465,0.10868000984191895,0.043404582887887955
554,2024-10-03T10:33:23.680Z,-0.03806353360414505,0.11345929652452469,1.0299233198165894,-0.005706787109375,-0.0034332275390625,0.0023193359375,-2.0418524742126465,0.10868000984191895,0.043404582887887955
555,2024-10-03T10:33:23.680Z,-0.041967444121837616,0.11053252965211868,1.0206513404846191,-0.005706787109375,-0.0034332275390625,0.0023193359375,-2.0418524742126465,0.10868000984191895,0.043404582887887955
556,2024-10-03T10:33:23.712Z,-0.041967444121837616,0.11053252965211868,1.0206513404846191,-0.005706787109375,-0.0034332275390625,0.0023193359375,-2.041548490524292,0.10834493488073349,0.04319504275918007
557,2024-10-03T10:33:23.712Z,-0.043431606143713,0.11028824746608734,1.015284776687622,-0.005706787109375,-0.0034332275390625,0.0023193359375,-2.041548490524292,0.10834493488073349,0.04319504275918007
558,2024-10-03T10:33:23.712Z,-0.043431606143713,0.11028824746608734,1.015284776687622,-0.009979248046875,-0.0046539306640625,0.0047607421875,-2.041548490524292,0.10834493488073349,0.04319504275918007
559,2024-10-03T10:33:23.733Z,-0.044164467602968216,0.11126383394002914,1.019431471824646,-0.009979248046875,-0.0046539306640625,0.0047607421875,-2.041548490524292,0.10834493488073349,0.04319504275918007
560,2024-10-03T10:33:23.733Z,-0.044164467602968216,0.11126383394002914,1.019431471824646,-0.0001983642578125,0.0008392333984375,-0.0001220703125,-2.041548490524292,0.10834493488073349,0.04319504275918007
561,2024-10-03T10:33:23.736Z,-0.044164467602968216,0.11126383394002914,1.019431471824646,-0.0001983642578125,0.0008392333984375,-0.0001220703125,-2.0414013862609863,0.10817252099514008,0.04310934618115425
